SpectraSuite Data File
++++++++++++++++++++++++++++++++++++
Date: Fri Feb 07 19:28:10 EST 2020
User: BHM
Dark Spectrum Present: No
Reference Spectrum Present: No
Number of Sampled Component Spectra: 1
Spectrometers: USB4H07074
Integration Time (usec): 1000000 (USB4H07074)
Spectra Averaged: 1 (USB4H07074)
Boxcar Smoothing: 0 (USB4H07074)
Correct for Electrical Dark: No (USB4H07074)
Strobe/Lamp Enabled: No (USB4H07074)
Correct for Detector Non-linearity: No (USB4H07074)
Correct for Stray Light: No (USB4H07074)
Number of Pixels in Processed Spectrum: 3648
>>>>>Begin Processed Spectral Data<<<<<
194.67	1245.16
194.89	1245.16
195.11	1245.16
195.33	1202.16
195.55	1339.37
195.77	2330.59
195.99	2488.28
196.21	1978.34
196.42	2052.06
196.64	2340.83
196.86	2260.96
197.08	2066.40
197.30	2312.16
197.52	2174.94
197.74	2050.02
197.96	1941.47
198.18	2115.55
198.40	2326.49
198.61	2475.99
198.83	2275.29
199.05	2252.77
199.27	2342.88
199.49	2609.11
199.71	2572.25
199.93	2299.87
200.15	2508.76
200.37	2422.75
200.58	2017.25
200.80	2506.71
201.02	2574.30
201.24	2404.32
201.46	2418.65
201.68	2265.05
201.90	2330.59
202.12	2664.41
202.34	2437.08
202.55	2508.76
202.77	2371.55
202.99	2394.08
203.21	2373.60
203.43	2400.22
203.65	2387.93
203.87	2303.96
204.09	2443.23
204.30	2588.63
204.52	2723.80
204.74	2416.60
204.96	2279.39
205.18	2426.84
205.40	2625.50
205.62	2236.38
205.84	2590.68
206.05	2498.52
206.27	2553.82
206.49	2461.66
206.71	2301.92
206.93	2453.47
207.15	2715.61
207.37	2729.94
207.58	2392.03
207.80	2097.12
208.02	2447.32
208.24	2449.37
208.46	2150.37
208.68	2207.71
208.90	2562.01
209.11	2496.47
209.33	2162.66
209.55	2346.97
209.77	2324.44
209.99	2359.26
210.21	2310.11
210.43	2240.48
210.64	2547.67
210.86	2457.56
211.08	2080.74
211.30	2592.73
211.52	2490.33
211.74	2461.66
211.95	2299.87
212.17	2551.77
212.39	2369.50
212.61	2660.31
212.83	2195.42
213.05	2199.52
213.26	2523.10
213.48	2453.47
213.70	2207.71
213.92	2183.13
214.14	2635.74
214.36	2277.34
214.57	2076.64
214.79	2428.89
215.01	2586.58
215.23	2682.84
215.45	2242.53
215.67	2172.89
215.88	2572.25
216.10	2731.99
216.32	1978.34
216.54	2150.37
216.76	2445.27
216.97	2332.64
217.19	2185.18
217.41	2299.87
217.63	2494.43
217.85	2662.36
218.07	2140.13
218.28	2531.29
218.50	2617.30
218.72	2521.05
218.94	2213.85
219.16	2473.95
219.37	2330.59
219.59	2531.29
219.81	2084.83
220.03	2338.78
220.25	2490.33
220.46	2654.17
220.68	2220.00
220.90	2156.51
221.12	2494.43
221.34	2351.07
221.55	2271.20
221.77	2062.30
221.99	2265.05
222.21	2490.33
222.43	2578.39
222.64	2142.18
222.86	2691.03
223.08	2443.23
223.30	2287.58
223.52	2322.40
223.73	2510.81
223.95	2877.40
224.17	2287.58
224.39	2160.61
224.60	2480.09
224.82	2400.22
225.04	2260.96
225.26	2289.63
225.48	2263.01
225.69	2625.50
225.91	2273.25
226.13	2621.40
226.35	2461.66
226.56	2451.42
226.78	2230.24
227.00	2189.28
227.22	2496.47
227.44	2576.34
227.65	2107.36
227.87	2330.59
228.09	2367.45
228.31	2582.49
228.52	2136.03
228.74	2201.57
228.96	2537.43
229.18	2328.54
229.39	2435.03
229.61	2076.64
229.83	2258.91
230.05	2379.74
230.26	2691.03
230.48	2396.12
230.70	2531.29
230.92	2250.72
231.13	2297.82
231.35	2183.13
231.57	2330.59
231.79	2576.34
232.00	2240.48
232.22	2082.78
232.44	2498.52
232.66	2516.95
232.87	2365.40
233.09	2324.44
233.31	2703.32
233.53	2402.27
233.74	2351.07
233.96	2553.82
234.18	2392.03
234.40	2506.71
234.61	2207.71
234.83	2220.00
235.05	2467.80
235.27	2408.41
235.48	2109.41
235.70	2402.27
235.92	2357.21
236.14	2516.95
236.35	2238.43
236.57	2559.96
236.79	2549.72
237.00	2389.98
237.22	2220.00
237.44	2402.27
237.66	2260.96
237.87	2752.47
238.09	2097.12
238.31	2097.12
238.53	2426.84
238.74	2402.27
238.96	2252.77
239.18	2220.00
239.39	2267.10
239.61	2541.53
239.83	2314.20
240.05	2277.34
240.26	2238.43
240.48	2510.81
240.70	2375.64
240.91	2533.34
241.13	2363.36
241.35	2256.86
241.56	2265.05
241.78	2254.81
242.00	2428.89
242.22	2486.23
242.43	2494.43
242.65	2516.95
242.87	2420.70
243.08	2553.82
243.30	2326.49
243.52	2416.60
243.73	2852.82
243.95	2549.72
244.17	2160.61
244.39	2074.59
244.60	2482.14
244.82	2475.99
245.04	2174.94
245.25	2002.91
245.47	2291.68
245.69	2432.99
245.90	2066.40
246.12	1947.62
246.34	2555.86
246.55	2559.96
246.77	2578.39
246.99	2365.40
247.20	2367.45
247.42	2818.00
247.64	2064.35
247.86	1931.23
248.07	2643.93
248.29	2353.12
248.51	2187.23
248.72	2273.25
248.94	2482.14
249.16	2437.08
249.37	2152.42
249.59	2359.26
249.81	2295.77
250.02	2449.37
250.24	2478.04
250.46	2385.88
250.67	2588.63
250.89	2406.36
251.11	2084.83
251.32	2205.66
251.54	2498.52
251.76	2451.42
251.97	2220.00
252.19	2361.31
252.40	2346.97
252.62	2525.15
252.84	2379.74
253.05	2457.56
253.27	2822.10
253.49	2435.03
253.70	2281.44
253.92	2621.40
254.14	2607.06
254.35	2383.84
254.57	2158.56
254.79	2199.52
255.00	2908.12
255.22	2510.81
255.44	2314.20
255.65	2359.26
255.87	2353.12
256.08	2402.27
256.30	2117.60
256.52	2271.20
256.73	2533.34
256.95	2525.15
257.17	2095.07
257.38	2478.04
257.60	2406.36
257.82	2404.32
258.03	2099.17
258.25	2181.09
258.46	2322.40
258.68	2559.96
258.90	2193.37
259.11	2101.22
259.33	2670.55
259.55	2303.96
259.76	2377.69
259.98	2172.89
260.19	2047.97
260.41	2394.08
260.63	2140.13
260.84	2176.99
261.06	2469.85
261.27	2549.72
261.49	2224.09
261.71	2295.77
261.92	2269.15
262.14	2602.97
262.35	2287.58
262.57	2060.26
262.79	2242.53
263.00	2492.38
263.22	2154.46
263.44	2185.18
263.65	2486.23
263.87	2541.53
264.08	2109.41
264.30	2359.26
264.52	2418.65
264.73	2588.63
264.95	2209.76
265.16	2291.68
265.38	2424.80
265.59	2349.02
265.81	2402.27
266.03	2164.70
266.24	2437.08
266.46	2404.32
266.67	2385.88
266.89	2611.16
267.11	2340.83
267.32	2336.73
267.54	2361.31
267.75	2310.11
267.97	2344.92
268.19	2371.55
268.40	2154.46
268.62	2099.17
268.83	2455.51
269.05	2387.93
269.26	2424.80
269.48	2281.44
269.70	2306.01
269.91	2541.53
270.13	2299.87
270.34	2283.49
270.56	2236.38
270.77	2306.01
270.99	2095.07
271.21	2408.41
271.42	2301.92
271.64	2535.39
271.85	2252.77
272.07	2377.69
272.28	2631.64
272.50	2521.05
272.71	2521.05
272.93	2303.96
273.15	2279.39
273.36	2383.84
273.58	2146.27
273.79	2322.40
274.01	2641.88
274.22	2740.18
274.44	2238.43
274.65	2244.57
274.87	2129.89
275.09	2351.07
275.30	2146.27
275.52	2203.61
275.73	2400.22
275.95	2588.63
276.16	2568.15
276.38	2271.20
276.59	2629.59
276.81	2711.51
277.02	2326.49
277.24	2127.84
277.45	2772.95
277.67	2580.44
277.89	2146.27
278.10	2422.75
278.32	2389.98
278.53	2324.44
278.75	2115.55
278.96	2453.47
279.18	2295.77
279.39	2422.75
279.61	2211.81
279.82	2320.35
280.04	2351.07
280.25	2310.11
280.47	2191.33
280.68	2101.22
280.90	2367.45
281.11	2271.20
281.33	2172.89
281.54	2129.89
281.76	2355.16
281.97	2160.61
282.19	2263.01
282.40	2441.18
282.62	2193.37
282.83	2619.35
283.05	2152.42
283.27	2359.26
283.48	2242.53
283.70	2500.57
283.91	2330.59
284.13	2150.37
284.34	2281.44
284.56	2549.72
284.77	2248.67
284.99	2326.49
285.20	2363.36
285.42	2588.63
285.63	2381.79
285.84	2418.65
286.06	2404.32
286.27	2224.09
286.49	2195.42
286.70	2228.19
286.92	2424.80
287.13	2246.62
287.35	2217.95
287.56	2312.16
287.78	2748.37
287.99	2209.76
288.21	2080.74
288.42	2904.02
288.64	2580.44
288.85	2621.40
289.07	2381.79
289.28	2342.88
289.50	2316.25
289.71	2437.08
289.93	2158.56
290.14	2105.31
290.36	2633.69
290.57	2213.85
290.79	2441.18
291.00	2447.32
291.22	2412.51
291.43	2895.83
291.64	2277.34
291.86	2224.09
292.07	2574.30
292.29	2562.01
292.50	2293.72
292.72	2142.18
292.93	2756.57
293.15	2660.31
293.36	2412.51
293.58	2355.16
293.79	2414.56
294.00	2588.63
294.22	2179.04
294.43	2269.15
294.65	2807.77
294.86	2547.67
295.08	2469.85
295.29	2881.49
295.51	2719.70
295.72	2744.28
295.94	2496.47
296.15	1986.53
296.36	2418.65
296.58	2424.80
296.79	2596.82
297.01	2277.34
297.22	2490.33
297.44	2566.10
297.65	2439.13
297.86	2496.47
298.08	2596.82
298.29	2832.34
298.51	2478.04
298.72	2340.83
298.94	2330.59
299.15	2590.68
299.36	2375.64
299.58	2248.67
299.79	2799.57
300.01	2514.91
300.22	2543.58
300.44	2207.71
300.65	2576.34
300.86	2398.17
301.08	2473.95
301.29	2287.58
301.51	2949.08
301.72	3059.67
301.93	2461.66
302.15	2353.12
302.36	2713.56
302.58	2551.77
302.79	2625.50
303.01	2326.49
303.22	2551.77
303.43	2723.80
303.65	2334.68
303.86	2406.36
304.08	2527.19
304.29	2533.34
304.50	2666.46
304.72	2293.72
304.93	2430.94
305.15	2906.07
305.36	2392.03
305.57	2543.58
305.79	2389.98
306.00	2607.06
306.22	2467.80
306.43	2439.13
306.64	2602.97
306.86	2881.49
307.07	2506.71
307.28	2400.22
307.50	2578.39
307.71	2885.59
307.93	2324.44
308.14	2387.93
308.35	2551.77
308.57	2623.45
308.78	2453.47
309.00	2420.70
309.21	2582.49
309.42	2621.40
309.64	2414.56
309.85	2203.61
310.06	2650.07
310.28	2650.07
310.49	2484.19
310.71	2045.92
310.92	2781.14
311.13	2490.33
311.35	2353.12
311.56	2645.98
311.77	2633.69
311.99	2672.60
312.20	2344.92
312.41	2699.22
312.63	2738.13
312.84	2619.35
313.06	2289.63
313.27	2627.54
313.48	2496.47
313.70	2609.11
313.91	2469.85
314.12	2181.09
314.34	2705.37
314.55	2592.73
314.76	2486.23
314.98	2404.32
315.19	2478.04
315.40	2750.42
315.62	2504.67
315.83	2682.84
316.04	2822.10
316.26	2779.09
316.47	2641.88
316.68	2523.10
316.90	2424.80
317.11	2688.98
317.32	2670.55
317.54	2484.19
317.75	2639.83
317.96	2617.30
318.18	2338.78
318.39	2449.37
318.60	2629.59
318.82	2439.13
319.03	2334.68
319.24	2387.93
319.46	2711.51
319.67	2672.60
319.88	2342.88
320.10	2293.72
320.31	2394.08
320.52	2502.62
320.74	2226.14
320.95	2248.67
321.16	2308.06
321.38	2861.01
321.59	2351.07
321.80	2222.05
322.02	2418.65
322.23	2983.89
322.44	2441.18
322.65	2277.34
322.87	2613.21
323.08	2502.62
323.29	2543.58
323.51	2617.30
323.72	2703.32
323.93	2635.74
324.15	2258.91
324.36	2469.85
324.57	2662.36
324.78	2488.28
325.00	2678.74
325.21	2404.32
325.42	2531.29
325.64	2568.15
325.85	2416.60
326.06	2199.52
326.28	2424.80
326.49	2453.47
326.70	2461.66
326.91	2572.25
327.13	2719.70
327.34	2627.54
327.55	2668.50
327.77	2283.49
327.98	2629.59
328.19	2541.53
328.40	2408.41
328.62	2199.52
328.83	2717.65
329.04	2521.05
329.25	2379.74
329.47	2394.08
329.68	2564.06
329.89	2559.96
330.11	2273.25
330.32	2281.44
330.53	2394.08
330.74	2658.26
330.96	2437.08
331.17	2273.25
331.38	2691.03
331.59	2576.34
331.81	2412.51
332.02	2396.12
332.23	2535.39
332.44	2641.88
332.66	2582.49
332.87	2150.37
333.08	2580.44
333.29	2631.64
333.51	2678.74
333.72	2174.94
333.93	2389.98
334.14	2777.05
334.36	2543.58
334.57	2402.27
334.78	2580.44
334.99	2813.91
335.21	2523.10
335.42	2502.62
335.63	2641.88
335.84	2629.59
336.06	2408.41
336.27	2310.11
336.48	2435.03
336.69	2791.38
336.91	2389.98
337.12	2461.66
337.33	2740.18
337.54	2377.69
337.75	2736.09
337.97	2248.67
338.18	2586.58
338.39	2510.81
338.60	2279.39
338.82	2625.50
339.03	2424.80
339.24	2430.94
339.45	2363.36
339.66	2371.55
339.88	2766.81
340.09	2416.60
340.30	2392.03
340.51	2402.27
340.73	2639.83
340.94	2842.58
341.15	2369.50
341.36	2455.51
341.57	2435.03
341.79	2705.37
342.00	2330.59
342.21	2244.57
342.42	2160.61
342.63	2531.29
342.85	2600.92
343.06	2426.84
343.27	2342.88
343.48	2463.71
343.69	2295.77
343.91	2533.34
344.12	2695.13
344.33	2361.31
344.54	2721.75
344.75	2246.62
344.97	2420.70
345.18	2312.16
345.39	2392.03
345.60	2265.05
345.81	2428.89
346.02	2437.08
346.24	2547.67
346.45	2504.67
346.66	2394.08
346.87	2488.28
347.08	2090.98
347.30	2236.38
347.51	2557.91
347.72	2404.32
347.93	2322.40
348.14	2490.33
348.35	2379.74
348.57	2432.99
348.78	1998.82
348.99	2410.46
349.20	2332.64
349.41	2820.05
349.62	2842.58
349.84	2592.73
350.05	2521.05
350.26	2428.89
350.47	2267.10
350.68	2320.35
350.89	2555.86
351.11	2478.04
351.32	2478.04
351.53	2496.47
351.74	2537.43
351.95	2789.33
352.16	2414.56
352.37	2338.78
352.59	2486.23
352.80	2623.45
353.01	2199.52
353.22	2549.72
353.43	2629.59
353.64	2555.86
353.86	2269.15
354.07	2576.34
354.28	2392.03
354.49	2465.75
354.70	2441.18
354.91	2127.84
355.12	2625.50
355.33	2693.08
355.55	2217.95
355.76	2445.27
355.97	2596.82
356.18	2617.30
356.39	2424.80
356.60	2299.87
356.81	2535.39
357.03	2562.01
357.24	2422.75
357.45	2652.12
357.66	2529.24
357.87	2699.22
358.08	2455.51
358.29	2432.99
358.50	2633.69
358.71	2838.48
358.93	2519.00
359.14	2359.26
359.35	3409.87
359.56	2625.50
359.77	2752.47
359.98	2639.83
360.19	2908.12
360.40	3133.39
360.61	3180.50
360.83	3043.28
361.04	3250.13
361.25	3446.73
361.46	3428.30
361.67	3123.15
361.88	3522.51
362.09	3375.05
362.30	3833.80
362.51	3979.20
362.72	4200.38
362.94	4786.10
363.15	4835.25
363.36	4923.32
363.57	4859.83
363.78	5042.10
363.99	4974.52
364.20	4849.59
364.41	4820.92
364.62	4935.60
364.83	4859.83
365.04	4532.15
365.26	4509.63
365.47	4515.77
365.68	4296.64
365.89	4196.29
366.10	4034.50
366.31	4622.27
366.52	3934.15
366.73	3979.20
366.94	3882.95
367.15	3475.40
367.36	3305.42
367.57	3252.17
367.78	3133.39
367.99	2932.69
368.21	2691.03
368.42	2979.79
368.63	2967.51
368.84	3129.30
369.05	2908.12
369.26	2762.71
369.47	2838.48
369.68	3108.82
369.89	2605.02
370.10	2836.44
370.31	3299.28
370.52	2953.17
370.73	2506.71
370.94	2830.29
371.15	2908.12
371.36	2840.53
371.57	2768.85
371.78	2863.06
371.99	2910.16
372.20	3235.79
372.42	3096.53
372.63	2709.46
372.84	2848.72
373.05	3039.19
373.26	2797.53
373.47	2871.25
373.68	3006.42
373.89	2885.59
374.10	2629.59
374.31	3184.59
374.52	2987.99
374.73	2951.12
374.94	3030.99
375.15	3235.79
375.36	3045.33
375.57	3039.19
375.78	3078.10
375.99	3096.53
376.20	3200.98
376.41	3436.49
376.62	3524.55
376.83	3731.40
377.04	3727.30
377.25	4177.86
377.46	4063.17
377.67	4159.42
377.88	4677.56
378.09	5023.67
378.30	4552.63
378.51	4958.13
378.72	4874.17
378.93	5369.77
379.14	5011.38
379.35	5197.74
379.56	5406.64
379.77	5846.95
379.98	5515.18
380.19	5541.80
380.40	5236.66
380.61	5590.95
380.82	5418.93
381.03	5404.59
381.24	5382.06
381.45	5164.98
381.66	5101.49
381.87	4816.82
382.08	4868.02
382.29	4681.66
382.50	4575.16
382.71	4878.26
382.92	4186.05
383.13	4579.26
383.34	4018.11
383.55	3729.35
383.76	3923.91
383.97	3958.72
384.18	3928.00
384.39	3829.70
384.60	3893.19
384.81	3762.12
385.02	3692.49
385.23	3526.60
385.44	3393.48
385.65	4065.22
385.86	3768.26
386.07	3373.00
386.28	3385.29
386.49	3162.06
386.70	3219.41
386.91	3182.54
387.11	3368.91
387.32	3311.57
387.53	3219.41
387.74	3395.53
387.95	3479.50
388.16	3315.66
388.37	3659.72
388.58	3473.36
388.79	3397.58
389.00	3475.40
389.21	3344.33
389.42	3141.58
389.63	3211.22
389.84	3678.15
390.05	3227.60
390.26	3227.60
390.47	3110.86
390.68	3307.47
390.89	3160.02
391.09	3557.32
391.30	3239.89
391.51	3649.48
391.72	3280.85
391.93	3450.83
392.14	3305.42
392.35	3178.45
392.56	3661.77
392.77	3350.48
392.98	3293.13
393.19	3385.29
393.40	3618.76
393.61	3241.93
393.82	3659.72
394.02	3524.55
394.23	3526.60
394.44	3348.43
394.65	3655.62
394.86	3506.12
395.07	3657.67
395.28	3401.68
395.49	3661.77
395.70	3770.31
395.91	3964.87
396.12	3612.62
396.32	3915.72
396.53	3672.01
396.74	3833.80
396.95	3952.58
397.16	4554.68
397.37	3825.61
397.58	4329.41
397.79	3850.18
398.00	4065.22
398.21	4624.31
398.41	4390.84
398.62	4267.97
398.83	4378.56
399.04	5134.26
399.25	4542.39
399.46	4376.51
399.67	4452.28
399.88	4880.31
400.09	4501.44
400.29	4802.49
400.50	4677.56
400.71	4386.75
400.92	4640.70
401.13	4569.02
401.34	5009.33
401.55	4730.81
401.76	4999.09
401.96	4906.93
402.17	5056.43
402.38	5207.98
402.59	5304.24
402.80	4962.23
403.01	5529.52
403.22	5402.54
403.43	5826.47
403.63	5416.88
403.84	5920.68
404.05	5941.16
404.26	5967.78
404.47	6191.01
404.68	6336.42
404.89	6336.42
405.09	6772.63
405.30	6737.82
405.51	7061.40
405.72	7440.27
405.93	7743.37
406.14	7573.39
406.35	8152.96
406.55	8402.82
406.76	8662.91
406.97	9009.01
407.18	9410.42
407.39	9742.19
407.60	10266.47
407.80	10491.74
408.01	10755.93
408.22	11398.99
408.43	11288.40
408.64	12017.48
408.85	12535.62
409.05	13023.03
409.26	13649.71
409.47	14180.14
409.68	14313.25
409.89	14948.12
410.10	15163.16
410.30	16031.50
410.51	16801.54
410.72	17420.02
410.93	17590.00
411.14	18405.10
411.35	19396.31
411.55	19859.15
411.76	20600.52
411.97	21216.96
412.18	22597.29
412.39	22974.11
412.59	23561.88
412.80	24217.23
413.01	25966.20
413.22	26265.20
413.43	26949.22
413.63	27592.28
413.84	28395.09
414.05	29144.64
414.26	29965.88
414.47	30701.10
414.67	32187.92
414.88	32777.74
415.09	33156.61
415.30	34317.81
415.51	35044.84
415.71	36083.16
415.92	37260.74
416.13	37754.30
416.34	38276.54
416.55	38710.71
416.75	40160.67
416.96	40705.43
417.17	41674.12
417.38	43119.98
417.59	43709.80
417.79	43963.75
418.00	45188.43
418.21	45972.80
418.42	46605.62
418.62	47275.31
418.83	48342.30
419.04	48663.83
419.25	49978.63
419.46	49970.44
419.66	51336.43
419.87	51555.57
420.08	52550.88
420.29	52288.74
420.49	53867.72
420.70	54449.35
420.91	54232.26
421.12	54807.74
421.32	55708.85
421.53	56777.89
421.74	56931.48
421.95	56773.79
422.15	57109.66
422.36	57650.32
422.57	58320.01
422.78	58223.75
422.98	59253.88
423.19	60396.65
423.40	59098.23
423.61	60286.06
423.81	61877.33
424.02	61082.72
424.23	61733.97
424.44	61211.74
424.64	61248.60
424.85	61781.07
425.06	62489.67
425.27	61983.82
425.47	63527.99
425.68	62481.48
425.89	62919.74
426.10	63599.67
426.30	63304.76
426.51	62776.39
426.72	63771.70
426.92	64169.00
427.13	64295.98
427.34	64134.19
427.55	64089.13
427.75	64640.04
427.96	63915.06
428.17	64633.89
428.38	64597.03
428.58	64762.92
428.79	64789.54
429.00	64535.59
429.20	65186.85
429.41	64185.39
429.62	64392.23
429.82	63996.98
430.03	64664.61
430.24	65008.67
430.45	64570.41
430.65	65528.86
430.86	65535.00
431.07	64703.52
431.27	64814.12
431.48	65375.26
431.69	64345.13
431.90	64545.83
432.10	64736.29
432.31	64394.28
432.52	64810.02
432.72	65266.72
432.93	65043.49
433.14	64214.06
433.34	64980.00
433.55	64169.00
433.76	64779.30
433.96	65262.62
434.17	64476.20
434.38	64590.89
434.58	64388.14
434.79	64269.36
435.00	64099.37
435.21	64668.71
435.41	65053.73
435.62	63677.49
435.83	64660.52
436.03	63198.27
436.24	64134.19
436.45	63896.62
436.65	64123.95
436.86	63544.37
437.07	63628.34
437.27	63964.21
437.48	64574.50
437.69	64021.55
437.89	64252.97
438.10	63738.93
438.31	64361.51
438.51	63947.82
438.72	63867.95
438.92	63648.82
439.13	62856.26
439.34	63429.69
439.54	64334.89
439.75	64388.14
439.96	62526.53
440.16	62499.91
440.37	63341.63
440.58	62762.05
440.78	62366.79
440.99	61602.90
441.20	63470.65
441.40	62737.47
441.61	62149.71
441.82	62600.26
442.02	62448.71
442.23	61807.70
442.43	62393.42
442.64	63188.03
442.85	62344.26
443.05	61985.87
443.26	62653.51
443.47	61277.27
443.67	62241.87
443.88	62266.44
444.08	62239.82
444.29	60476.52
444.50	61264.99
444.70	60705.89
444.91	61555.80
445.12	61129.82
445.32	60189.80
445.53	60933.21
445.73	60841.06
445.94	60408.93
446.15	60126.31
446.35	60722.27
446.56	60691.55
446.76	59823.22
446.97	60169.32
447.18	59579.51
447.38	58918.01
447.59	59765.87
447.79	59993.20
448.00	59272.31
448.21	58954.88
448.41	58455.17
448.62	58791.04
448.82	58772.61
449.03	58459.27
449.24	57922.70
449.44	57668.75
449.65	57566.35
449.85	58813.57
450.06	57537.68
450.27	56597.66
450.47	56730.78
450.68	56773.79
450.88	57185.43
451.09	56620.19
451.29	56306.85
451.50	55837.87
451.71	55852.20
451.91	55489.71
452.12	55608.50
452.32	55301.30
452.53	55129.27
452.73	54836.41
452.94	54305.99
453.15	54394.05
453.35	54228.16
453.56	53474.51
453.76	52890.84
453.97	53042.39
454.17	54066.38
454.38	53091.54
454.59	52737.24
454.79	52305.12
455.00	52966.62
455.20	52514.01
455.41	51854.57
455.61	51311.86
455.82	52503.77
456.02	51563.76
456.23	50851.06
456.44	50703.61
456.64	50951.41
456.85	50414.85
457.05	50586.88
457.26	50959.61
457.46	50697.47
457.67	49882.37
457.87	49851.66
458.08	50136.32
458.28	49935.62
458.49	48928.02
458.69	49579.28
458.90	48919.83
459.11	48733.46
459.31	48956.69
459.52	48383.26
459.72	47594.79
459.93	48428.32
460.13	47904.04
460.34	48358.69
460.54	48272.67
460.75	47129.90
460.95	46939.44
461.16	46540.09
461.36	46867.76
461.57	46177.60
461.77	46744.89
461.98	46165.31
462.18	46503.23
462.39	46535.99
462.59	46503.23
462.80	46105.92
463.00	45321.55
463.21	45346.12
463.41	45403.47
463.62	45198.67
463.82	45313.36
464.03	45458.76
464.23	45446.47
464.44	44664.15
464.64	45266.25
464.85	44111.20
465.05	44588.38
465.26	45040.98
465.46	43623.78
465.67	44483.93
465.87	43572.58
466.08	43318.64
466.28	44418.39
466.49	44150.11
466.69	43427.18
466.90	43152.75
467.10	43410.79
467.31	42507.64
467.51	43345.26
467.72	42964.34
467.92	43459.94
468.13	43232.62
468.33	43136.37
468.54	42696.05
468.74	43191.66
468.95	42685.81
469.15	42607.99
469.35	42712.44
469.56	41950.59
469.76	42208.64
469.97	42102.14
470.17	42839.41
470.38	41895.30
470.58	42497.40
470.79	42775.92
470.99	43017.58
471.20	42962.29
471.40	42665.33
471.61	42857.84
471.81	41551.24
472.01	42315.13
472.22	42397.05
472.42	42034.56
472.63	42403.19
472.83	41866.63
473.04	41440.65
473.24	42188.16
473.45	42628.47
473.65	41907.58
473.85	42329.47
474.06	41776.51
474.26	42241.40
474.47	42024.32
474.67	41524.61
474.88	42067.33
475.08	41897.34
475.28	42423.67
475.49	42372.47
475.69	41842.05
475.90	42356.09
476.10	42151.29
476.31	42546.55
476.51	42110.33
476.71	42071.42
476.92	41696.64
477.12	41872.77
477.33	41856.39
477.53	41803.14
477.73	42413.43
477.94	41682.31
478.14	41909.63
478.35	41508.23
478.55	42143.10
478.76	41891.20
478.96	41334.15
479.16	42065.28
479.37	41981.31
479.57	41332.11
479.78	41776.51
479.98	41649.54
480.18	41985.41
480.39	41649.54
480.59	41776.51
480.80	41678.21
481.00	41682.31
481.20	41143.69
481.41	41252.23
481.61	41598.34
481.81	41241.99
482.02	41633.16
482.22	41399.69
482.43	40949.14
482.63	40615.32
482.83	40740.24
483.04	41555.33
483.24	40775.06
483.45	40744.34
483.65	40787.35
483.85	40680.85
484.06	40439.19
484.26	40965.52
484.46	40865.17
484.67	40398.23
484.87	40412.57
485.07	40566.16
485.28	40211.87
485.48	39927.20
485.69	40070.56
485.89	39751.07
486.09	39968.16
486.30	39374.25
486.50	39529.89
486.70	39599.52
486.91	39441.83
487.11	39476.65
487.31	39527.84
487.52	39437.73
487.72	39140.78
487.92	38671.79
488.13	39511.46
488.33	38927.79
488.54	38600.12
488.74	38581.68
488.94	39050.67
489.15	38286.78
489.35	38886.83
489.55	38350.26
489.76	38131.13
489.96	37948.86
490.16	37748.16
490.37	37658.05
490.57	37705.15
490.77	37668.29
490.98	37313.99
491.18	37406.15
491.38	37555.65
491.59	37582.27
491.79	37340.61
491.99	36830.67
492.19	36623.83
492.40	36916.68
492.60	36484.56
492.80	36500.95
493.01	36181.46
493.21	36484.56
493.41	36335.06
493.62	36333.01
493.82	36263.38
494.02	35919.32
494.23	35851.74
494.43	35939.80
494.63	36036.06
494.84	35304.93
495.04	35220.97
495.24	35552.74
495.44	35204.58
495.65	35014.12
495.85	34782.70
496.05	34862.57
496.26	34686.45
496.46	34797.04
496.66	34295.28
496.86	34678.25
497.07	34782.70
497.27	34262.52
497.47	34461.17
497.68	33457.67
497.88	34768.37
498.08	33916.41
498.28	33684.99
498.49	33521.15
498.69	32878.09
498.89	33205.77
499.10	33570.30
499.30	33312.26
499.50	33236.48
499.70	32906.76
499.91	32818.70
500.11	32558.61
500.31	32620.05
500.51	32415.25
500.72	32362.00
500.92	32620.05
501.12	31989.27
501.33	31950.36
501.53	31626.78
501.73	31829.53
501.93	31661.60
502.14	31950.36
502.34	31610.40
502.54	31223.33
502.74	30991.91
502.95	30948.90
503.15	30871.08
503.35	30950.95
503.55	31106.60
503.76	30813.74
503.96	30135.86
504.16	30832.17
504.36	30518.83
504.57	29832.76
504.77	29933.11
504.97	30121.52
505.17	29875.77
505.37	29486.65
505.58	29122.12
505.78	29548.09
505.98	29421.12
506.18	29079.11
506.39	29072.96
506.59	29068.87
506.79	29224.51
506.99	28733.00
507.20	28739.15
507.40	28712.52
507.60	28489.29
507.80	28282.45
508.00	28247.63
508.21	28251.73
508.41	28481.10
508.61	27909.72
508.81	27760.22
509.01	27661.91
509.22	28112.47
509.42	27561.56
509.62	27086.43
509.82	27342.43
510.02	27567.71
510.23	26947.17
510.43	27270.75
510.63	27209.31
510.83	27219.55
511.03	26869.35
511.24	26721.90
511.44	26977.89
511.64	26953.32
511.84	26392.17
512.04	26457.71
512.25	26123.89
512.45	25878.13
512.65	25892.47
512.85	25595.51
513.05	26121.84
513.26	25548.41
513.46	25478.78
513.66	25286.27
513.86	25128.58
514.06	25400.96
514.26	25589.37
514.47	24645.26
514.67	24868.48
514.87	24931.97
515.07	24628.87
515.27	24094.35
515.47	24557.19
515.68	24491.66
515.88	24303.25
516.08	23881.36
516.28	23922.32
516.48	23887.51
516.68	23479.96
516.89	23449.24
517.09	23322.27
517.29	23240.35
517.49	23107.23
517.69	23430.81
517.89	23678.61
518.09	22920.87
518.30	22380.20
518.50	22611.62
518.70	22417.07
518.90	22361.77
519.10	23193.25
519.30	22185.65
519.50	22116.01
519.71	22214.32
519.91	21806.77
520.11	21728.95
520.31	21579.45
520.51	21978.80
520.71	21335.74
520.91	21300.92
521.12	21362.36
521.32	21431.99
521.52	20917.95
521.72	20833.99
521.92	20549.32
522.12	20752.07
522.32	20819.65
522.52	20354.76
522.73	20424.39
522.93	20532.93
523.13	20426.44
523.33	19832.53
523.53	19826.39
523.73	19750.61
523.93	19945.17
524.13	19707.60
524.33	20166.35
524.54	19451.61
524.74	19154.65
524.94	19232.47
525.14	19117.79
525.34	19160.80
525.54	18876.13
525.74	18327.27
525.94	18777.83
526.14	18454.25
526.34	18403.05
526.55	18020.08
526.75	18532.07
526.95	17899.25
527.15	17985.26
527.35	17704.69
527.55	17721.07
527.75	17727.22
527.95	17399.54
528.15	17166.07
528.35	17241.85
528.55	17276.66
528.75	17030.91
528.96	17098.49
529.16	16764.67
529.36	16920.32
529.56	16643.84
529.76	16545.54
529.96	16451.33
530.16	16776.96
530.36	15976.20
530.56	16080.65
530.76	15820.56
530.96	15726.35
531.16	16187.14
531.36	15419.16
531.56	16203.53
531.76	15572.75
531.96	15501.08
532.17	15142.68
532.37	14909.21
532.57	15232.79
532.77	14847.77
532.97	14843.68
533.17	15054.62
533.37	14815.01
533.57	14706.46
533.77	14677.79
533.97	14636.83
534.17	14491.43
534.37	14280.49
534.57	14376.74
534.77	14108.46
534.97	13807.41
535.17	13848.36
535.37	13846.32
535.57	13508.40
535.77	13756.21
535.97	13182.77
536.17	13383.48
536.37	13512.50
536.57	13571.89
536.77	13264.69
536.97	12971.83
537.17	13150.01
537.37	12605.25
537.57	12711.74
537.77	12799.80
537.97	12885.82
538.18	12715.84
538.38	12406.59
538.58	13156.15
538.78	12359.49
538.98	12728.13
539.18	12437.31
539.38	12154.69
539.58	12222.28
539.78	12371.78
539.98	12091.21
540.18	11882.31
540.38	11913.03
540.58	12244.81
540.78	11585.36
540.98	11657.04
541.18	11597.65
541.38	11503.44
541.58	11657.04
541.77	11542.35
541.97	11413.33
542.17	11679.57
542.37	11054.94
542.57	10913.63
542.77	10907.48
542.97	11300.69
543.17	10942.30
543.37	11069.27
543.57	10598.24
543.77	11005.78
543.97	10831.71
544.17	10686.30
544.37	10469.22
544.57	10592.09
544.77	10497.89
544.97	10475.36
545.17	10379.11
545.37	10434.40
545.57	10432.35
545.77	10569.57
545.97	10121.06
546.17	10325.86
546.37	9942.89
546.57	9899.88
546.77	10080.10
546.97	9729.90
547.17	9547.63
547.37	9781.10
547.57	9588.59
547.76	9815.91
547.96	9588.59
548.16	9289.59
548.36	9320.31
548.56	9097.08
548.76	9144.18
548.96	9129.84
549.16	9244.53
549.36	9252.72
549.56	8873.85
549.76	9604.97
549.96	8916.86
550.16	8904.57
550.36	8902.52
550.56	9006.97
550.75	8884.09
550.95	8818.55
551.15	8507.26
551.35	8482.69
551.55	8607.61
551.75	8798.07
551.95	8333.18
552.15	8089.48
552.35	8437.63
552.55	8087.43
552.75	8112.00
552.95	7710.60
553.14	8277.89
553.34	8533.89
553.54	8079.24
553.74	7909.26
553.94	7960.45
554.14	8036.23
554.34	8288.13
554.54	7976.84
554.74	7948.17
554.94	7919.50
555.13	7673.74
555.33	7258.00
555.53	7479.18
555.73	7438.22
555.93	7335.82
556.13	7663.50
556.33	7704.46
556.53	7776.14
556.73	7157.65
556.92	7346.06
557.12	7278.48
557.32	7204.75
557.52	6905.75
557.72	7022.48
557.92	7333.78
558.12	6959.00
558.32	7137.17
558.51	7214.99
558.71	6999.96
558.91	7167.89
559.11	6848.41
559.31	6819.74
559.51	6756.25
559.71	6705.05
559.91	6539.16
560.10	6367.13
560.30	7137.17
560.50	6547.36
560.70	6485.92
560.90	6434.72
561.10	6561.69
561.29	6631.32
561.49	6178.72
561.69	6485.92
561.89	6363.04
562.09	6420.38
562.29	6469.53
562.49	5906.34
562.68	6143.91
562.88	6518.68
563.08	6172.58
563.28	5984.16
563.48	6090.66
563.68	6334.37
563.87	6035.36
564.07	5621.67
564.27	5906.34
564.47	5881.77
564.67	5617.58
564.87	5521.32
565.06	5674.92
565.26	5771.18
565.46	5726.12
565.66	5556.14
565.86	6072.23
566.05	5449.64
566.25	5328.81
566.45	5472.17
566.65	5705.64
566.85	5494.70
567.05	5332.91
567.24	5156.79
567.44	5240.75
567.64	5523.37
567.84	5111.73
568.04	5060.53
568.23	5486.51
568.43	5869.48
568.63	4708.28
568.83	5052.34
569.03	5302.19
569.22	5343.15
569.42	4947.89
569.62	5048.24
569.82	5296.05
570.02	5144.50
570.21	5109.68
570.41	4941.75
570.61	5035.96
570.81	5140.40
571.00	4812.73
571.20	4566.97
571.40	5119.92
571.60	4976.56
571.80	4839.35
571.99	4716.47
572.19	4949.94
572.39	4888.50
572.59	4603.83
572.78	4442.04
572.98	4782.01
573.18	4818.87
573.38	4683.70
573.57	4919.22
573.77	4757.43
573.97	4827.06
574.17	4335.55
574.36	4419.52
574.56	4620.22
574.76	4472.76
574.96	4399.04
575.15	4603.83
575.35	4505.53
575.55	4581.31
575.75	4503.48
575.94	4583.35
576.14	4478.91
576.34	4607.93
576.54	4147.14
576.73	4194.24
576.93	4392.89
577.13	4190.14
577.33	4556.73
577.52	4120.51
577.72	4216.77
577.92	4292.54
578.12	4057.03
578.31	4476.86
578.51	4782.01
578.71	4411.32
578.90	3893.19
579.10	4450.24
579.30	4374.46
579.50	4110.27
579.69	3837.89
579.89	4007.87
580.09	4239.30
580.29	4095.94
580.48	3858.37
580.68	3815.37
580.88	4120.51
581.07	3846.09
581.27	3950.53
581.47	4108.23
581.66	4016.07
581.86	4577.21
582.06	3813.32
582.26	3878.85
582.45	3846.09
582.65	4294.59
582.85	3925.96
583.04	3571.66
583.24	4081.60
583.44	3684.30
583.63	3803.08
583.83	3577.80
584.03	3751.88
584.22	4124.61
584.42	3682.25
584.62	3690.44
584.82	3911.62
585.01	4048.83
585.21	3764.17
585.41	3618.76
585.60	3772.36
585.80	3678.15
586.00	3522.51
586.19	3362.76
586.39	3506.12
586.59	3647.43
586.78	3526.60
586.98	3592.14
587.18	3583.95
587.37	3917.76
587.57	3465.16
587.77	3727.30
587.96	3473.36
588.16	3629.00
588.36	3309.52
588.55	3391.44
588.75	4036.55
588.94	3463.12
589.14	3319.76
589.34	3491.79
589.53	3743.69
589.73	3508.17
589.93	3321.81
590.12	3149.78
590.32	3590.09
590.52	3643.34
590.71	3454.92
590.91	3157.97
591.11	3393.48
591.30	3563.47
591.50	3139.54
591.69	2895.83
591.89	3602.38
592.09	3616.71
592.28	3227.60
592.48	3186.64
592.68	3520.46
592.87	3278.80
593.07	3270.61
593.26	3155.92
593.46	3278.80
593.66	3661.77
593.85	3039.19
594.05	3393.48
594.24	3383.24
594.44	3137.49
594.64	3248.08
594.83	2815.96
595.03	3794.89
595.23	3268.56
595.42	3125.20
595.62	3203.02
595.81	3463.12
596.01	3102.67
596.20	3026.90
596.40	2996.18
596.60	3018.71
596.79	3737.54
596.99	2973.65
597.18	2830.29
597.38	3203.02
597.58	3139.54
597.77	2824.15
597.97	2723.80
598.16	3223.50
598.36	3542.99
598.56	2711.51
598.75	3268.56
598.95	3317.71
599.14	3272.65
599.34	3092.43
599.53	2949.08
599.73	3190.74
599.93	3385.29
600.12	3088.34
600.32	3196.88
600.51	3223.50
600.71	2955.22
600.90	3026.90
601.10	2955.22
601.29	3506.12
601.49	3289.04
601.69	2895.83
601.88	3014.61
602.08	3262.41
602.27	3207.12
602.47	2725.85
602.66	2775.00
602.86	3278.80
603.05	3364.81
603.25	2904.02
603.45	2953.17
603.64	3270.61
603.84	3018.71
604.03	2609.11
604.23	3049.43
604.42	3164.11
604.62	3114.96
604.81	2863.06
605.01	3114.96
605.20	3291.09
605.40	3022.80
605.59	2697.17
605.79	2846.68
605.98	2875.35
606.18	3172.30
606.37	3143.63
606.57	2881.49
606.77	2979.79
606.96	2879.44
607.16	2516.95
607.35	2691.03
607.55	3102.67
607.74	3002.32
607.94	2807.77
608.13	2717.65
608.33	2940.88
608.52	2928.60
608.72	2703.32
608.91	2803.67
609.11	2777.05
609.30	3080.14
609.50	2838.48
609.69	2562.01
609.89	3166.16
610.08	3166.16
610.28	2652.12
610.47	2670.55
610.67	2887.64
610.86	3030.99
611.06	3030.99
611.25	2781.14
611.44	3012.56
611.64	3106.77
611.83	2949.08
612.03	2736.09
612.22	2826.20
612.42	2940.88
612.61	2602.97
612.81	2576.34
613.00	3020.75
613.20	2850.77
613.39	2609.11
613.59	2871.25
613.78	2752.47
613.98	3174.35
614.17	2772.95
614.37	2920.40
614.56	2783.19
614.75	3051.47
614.95	2666.46
615.14	2680.79
615.34	2578.39
615.53	3157.97
615.73	3059.67
615.92	2656.22
616.12	2621.40
616.31	2865.11
616.50	2777.05
616.70	2619.35
616.89	2826.20
617.09	3094.48
617.28	2756.57
617.48	2746.33
617.67	2881.49
617.87	3164.11
618.06	2772.95
618.25	2377.69
618.45	2781.14
618.64	3100.62
618.84	2752.47
619.03	2852.82
619.23	2760.66
619.42	2564.06
619.61	2750.42
619.81	2709.46
620.00	2846.68
620.20	2836.44
620.39	2865.11
620.58	2568.15
620.78	2545.63
620.97	2858.96
621.17	2484.19
621.36	2445.27
621.55	2959.31
621.75	2781.14
621.94	2654.17
622.14	2355.16
622.33	2521.05
622.52	2803.67
622.72	2359.26
622.91	2650.07
623.11	2791.38
623.30	2645.98
623.49	2680.79
623.69	2576.34
623.88	2729.94
624.08	2875.35
624.27	2559.96
624.46	2519.00
624.66	2631.64
624.85	2885.59
625.05	2553.82
625.24	2541.53
625.43	2742.23
625.63	2738.13
625.82	2512.86
626.01	2322.40
626.21	2824.15
626.40	2861.01
626.59	2494.43
626.79	2656.22
626.98	2768.85
627.18	2539.48
627.37	2678.74
627.56	2439.13
627.76	2676.70
627.95	2742.23
628.14	2351.07
628.34	2559.96
628.53	2721.75
628.72	2674.65
628.92	2490.33
629.11	2666.46
629.30	2621.40
629.50	2490.33
629.69	2543.58
629.88	2590.68
630.08	2678.74
630.27	2510.81
630.46	2400.22
630.66	2521.05
630.85	2562.01
631.04	2738.13
631.24	2674.65
631.43	2449.37
631.62	2570.20
631.82	2893.78
632.01	2478.04
632.20	2441.18
632.40	3375.05
632.59	2826.20
632.78	2422.75
632.98	2338.78
633.17	2631.64
633.36	2996.18
633.56	2273.25
633.75	2291.68
633.94	2533.34
634.14	3020.75
634.33	2394.08
634.52	2609.11
634.71	2738.13
634.91	2781.14
635.10	2432.99
635.29	2473.95
635.49	2740.18
635.68	2668.50
635.87	2363.36
636.07	2316.25
636.26	2645.98
636.45	3026.90
636.64	2535.39
636.84	2545.63
637.03	2779.09
637.22	2564.06
637.42	2455.51
637.61	2496.47
637.80	2854.87
637.99	2705.37
638.19	2437.08
638.38	2607.06
638.57	2629.59
638.76	2564.06
638.96	2381.79
639.15	2785.24
639.34	2613.21
639.54	2437.08
639.73	2359.26
639.92	2406.36
640.11	2387.93
640.31	2734.04
640.50	2475.99
640.69	2557.91
640.88	2691.03
641.08	2703.32
641.27	2322.40
641.46	2512.86
641.65	2328.54
641.85	2492.38
642.04	2721.75
642.23	2373.60
642.42	2519.00
642.62	2545.63
642.81	2285.53
643.00	2705.37
643.19	2586.58
643.38	2475.99
643.58	2201.57
643.77	2293.72
643.96	2721.75
644.15	2617.30
644.35	2408.41
644.54	2185.18
644.73	2645.98
644.92	2639.83
645.12	2527.19
645.31	2248.67
645.50	2527.19
645.69	2566.10
645.88	2240.48
646.08	2328.54
646.27	2308.06
646.46	2361.31
646.65	2469.85
646.84	2326.49
647.04	2660.31
647.23	2449.37
647.42	2408.41
647.61	2744.28
647.80	2576.34
648.00	2674.65
648.19	2326.49
648.38	2396.12
648.57	2568.15
648.76	2574.30
648.96	2416.60
649.15	2467.80
649.34	2486.23
649.53	2600.92
649.72	2285.53
649.92	2559.96
650.11	2291.68
650.30	2504.67
650.49	2123.74
650.68	2228.19
650.87	2392.03
651.07	2281.44
651.26	2426.84
651.45	2410.46
651.64	2361.31
651.83	2543.58
652.02	2306.01
652.22	2297.82
652.41	2402.27
652.60	2498.52
652.79	2213.85
652.98	2314.20
653.17	2543.58
653.37	2557.91
653.56	2537.43
653.75	2428.89
653.94	2445.27
654.13	2539.48
654.32	2340.83
654.51	2303.96
654.71	2416.60
654.90	2535.39
655.09	2148.32
655.28	2346.97
655.47	2717.65
655.66	2611.16
655.85	2338.78
656.05	2459.61
656.24	2703.32
656.43	2432.99
656.62	2428.89
656.81	2435.03
657.00	2424.80
657.19	2336.73
657.38	2277.34
657.58	2572.25
657.77	2392.03
657.96	2449.37
658.15	2437.08
658.34	2314.20
658.53	2428.89
658.72	2498.52
658.91	2308.06
659.10	2541.53
659.30	2447.32
659.49	2551.77
659.68	2424.80
659.87	2418.65
660.06	2564.06
660.25	2527.19
660.44	2445.27
660.63	2168.80
660.82	2602.97
661.01	2607.06
661.21	2297.82
661.40	2463.71
661.59	2447.32
661.78	2396.12
661.97	2267.10
662.16	2367.45
662.35	2349.02
662.54	2562.01
662.73	2396.12
662.92	2412.51
663.11	2686.94
663.30	2463.71
663.50	2291.68
663.69	2203.61
663.88	2541.53
664.07	2510.81
664.26	2168.80
664.45	2383.84
664.64	2357.21
664.83	2195.42
665.02	2185.18
665.21	2461.66
665.40	2398.17
665.59	2527.19
665.78	2492.38
665.97	2379.74
666.16	2404.32
666.35	2346.97
666.54	2146.27
666.73	2570.20
666.93	2334.68
667.12	2525.15
667.31	2482.14
667.50	2324.44
667.69	2346.97
667.88	2355.16
668.07	2365.40
668.26	2172.89
668.45	2740.18
668.64	2455.51
668.83	2205.66
669.02	2248.67
669.21	2183.13
669.40	2543.58
669.59	2437.08
669.78	2330.59
669.97	2424.80
670.16	2469.85
670.35	2295.77
670.54	2273.25
670.73	2408.41
670.92	2195.42
671.11	2336.73
671.30	2326.49
671.49	2713.56
671.68	2533.34
671.87	2279.39
672.06	2412.51
672.25	2555.86
672.44	2590.68
672.63	2209.76
672.82	2377.69
673.01	2322.40
673.20	2531.29
673.39	2293.72
673.58	2158.56
673.77	2269.15
673.96	2189.28
674.15	2244.57
674.34	2346.97
674.53	2541.53
674.72	2471.90
674.91	2506.71
675.10	2334.68
675.29	2381.79
675.48	2228.19
675.67	2224.09
675.86	2387.93
676.05	2336.73
676.24	2361.31
676.43	2361.31
676.62	2508.76
676.81	2453.47
677.00	2648.02
677.19	2156.51
677.38	2164.70
677.57	2514.91
677.75	2627.54
677.94	2365.40
678.13	2127.84
678.32	2424.80
678.51	2779.09
678.70	2127.84
678.89	2432.99
679.08	2152.42
679.27	2422.75
679.46	2299.87
679.65	2445.27
679.84	2242.53
680.03	2328.54
680.22	2385.88
680.41	2306.01
680.60	2731.99
680.79	2768.85
680.97	2183.13
681.16	2213.85
681.35	2475.99
681.54	2363.36
681.73	2195.42
681.92	2254.81
682.11	2410.46
682.30	2523.10
682.49	2217.95
682.68	2113.50
682.87	2334.68
683.06	2398.17
683.25	2377.69
683.43	2236.38
683.62	2529.24
683.81	2467.80
684.00	2349.02
684.19	2314.20
684.38	2467.80
684.57	2672.60
684.76	2340.83
684.95	2316.25
685.14	2592.73
685.32	2377.69
685.51	2136.03
685.70	2484.19
685.89	2279.39
686.08	2357.21
686.27	2105.31
686.46	2306.01
686.65	2336.73
686.83	2349.02
687.02	2275.29
687.21	2289.63
687.40	2439.13
687.59	2402.27
687.78	2400.22
687.97	2097.12
688.16	2566.10
688.34	2572.25
688.53	2340.83
688.72	2369.50
688.91	2484.19
689.10	2541.53
689.29	2263.01
689.48	2228.19
689.66	2566.10
689.85	2721.75
690.04	2365.40
690.23	2576.34
690.42	2435.03
690.61	2437.08
690.80	2381.79
690.98	2265.05
691.17	2576.34
691.36	2918.36
691.55	2207.71
691.74	2256.86
691.93	2236.38
692.11	2226.14
692.30	2215.90
692.49	2557.91
692.68	2578.39
692.87	2432.99
693.06	2060.26
693.24	2291.68
693.43	2381.79
693.62	2359.26
693.81	2160.61
694.00	2228.19
694.19	2410.46
694.37	2314.20
694.56	2105.31
694.75	2361.31
694.94	2301.92
695.13	2181.09
695.31	2093.02
695.50	2195.42
695.69	2697.17
695.88	2525.15
696.07	2564.06
696.25	2467.80
696.44	2441.18
696.63	2787.29
696.82	2263.01
697.01	2203.61
697.19	2281.44
697.38	2510.81
697.57	2213.85
697.76	2357.21
697.95	2535.39
698.13	2332.64
698.32	2156.51
698.51	2252.77
698.70	2590.68
698.88	2283.49
699.07	2156.51
699.26	2269.15
699.45	2396.12
699.64	2435.03
699.82	2172.89
700.01	2355.16
700.20	2281.44
700.39	2527.19
700.57	2193.37
700.76	2467.80
700.95	2230.24
701.14	2707.41
701.32	2172.89
701.51	2303.96
701.70	2371.55
701.89	2263.01
702.07	2379.74
702.26	2326.49
702.45	2426.84
702.64	2512.86
702.82	2254.81
703.01	2377.69
703.20	2437.08
703.39	2420.70
703.57	2439.13
703.76	2641.88
703.95	2250.72
704.14	2269.15
704.32	2090.98
704.51	2371.55
704.70	2240.48
704.89	2320.35
705.07	2279.39
705.26	2498.52
705.45	2217.95
705.63	2336.73
705.82	2242.53
706.01	2213.85
706.20	2359.26
706.38	2344.92
706.57	2021.35
706.76	2127.84
706.94	2201.57
707.13	2387.93
707.32	2445.27
707.51	2029.54
707.69	2334.68
707.88	2750.42
708.07	2220.00
708.25	2113.50
708.44	2312.16
708.63	2166.75
708.81	2160.61
709.00	2383.84
709.19	2512.86
709.37	2271.20
709.56	2230.24
709.75	2357.21
709.94	2451.42
710.12	2299.87
710.31	2338.78
710.50	2355.16
710.68	2394.08
710.87	2488.28
711.06	2181.09
711.24	2469.85
711.43	2258.91
711.62	2611.16
711.80	2258.91
711.99	2475.99
712.18	2220.00
712.36	2488.28
712.55	2295.77
712.74	2265.05
712.92	2437.08
713.11	2394.08
713.30	2125.79
713.48	2340.83
713.67	2306.01
713.85	2414.56
714.04	2250.72
714.23	2713.56
714.41	2189.28
714.60	2449.37
714.79	2293.72
714.97	2625.50
715.16	2312.16
715.35	2521.05
715.53	2176.99
715.72	2293.72
715.91	2281.44
716.09	2486.23
716.28	2242.53
716.46	2355.16
716.65	2625.50
716.84	2623.45
717.02	2074.59
717.21	2256.86
717.40	2246.62
717.58	2295.77
717.77	2220.00
717.95	2394.08
718.14	2590.68
718.33	2535.39
718.51	2183.13
718.70	2131.94
718.88	2400.22
719.07	2254.81
719.26	2121.70
719.44	2314.20
719.63	2224.09
719.81	2340.83
720.00	2142.18
720.19	2220.00
720.37	2220.00
720.56	2480.09
720.74	2281.44
720.93	2387.93
721.12	2324.44
721.30	2363.36
721.49	2201.57
721.67	2279.39
721.86	2340.83
722.04	2506.71
722.23	2181.09
722.42	2291.68
722.60	2289.63
722.79	2445.27
722.97	2322.40
723.16	2215.90
723.34	2330.59
723.53	2332.64
723.72	2504.67
723.90	2283.49
724.09	2322.40
724.27	2486.23
724.46	2308.06
724.64	2232.29
724.83	2328.54
725.01	2500.57
725.20	2183.13
725.39	2306.01
725.57	2691.03
725.76	2414.56
725.94	2220.00
726.13	2127.84
726.31	2199.52
726.50	2355.16
726.68	2256.86
726.87	2303.96
727.05	2379.74
727.24	2387.93
727.42	2463.71
727.61	2306.01
727.80	2148.32
727.98	2609.11
728.17	2121.70
728.35	2263.01
728.54	2365.40
728.72	2328.54
728.91	2285.53
729.09	2031.58
729.28	2514.91
729.46	2512.86
729.65	2320.35
729.83	2254.81
730.02	2553.82
730.20	2449.37
730.39	2713.56
730.57	2291.68
730.76	2263.01
730.94	2625.50
731.13	2273.25
731.31	2117.60
731.50	2152.42
731.68	2340.83
731.87	2164.70
732.05	2355.16
732.24	2387.93
732.42	2295.77
732.61	2193.37
732.79	2379.74
732.98	2553.82
733.16	2461.66
733.35	2133.98
733.53	2285.53
733.71	2267.10
733.90	2295.77
734.08	2312.16
734.27	2289.63
734.45	2379.74
734.64	2269.15
734.82	2199.52
735.01	2279.39
735.19	2236.38
735.38	2435.03
735.56	2447.32
735.75	2480.09
735.93	2301.92
736.11	2516.95
736.30	2361.31
736.48	2174.94
736.67	2529.24
736.85	2357.21
737.04	2136.03
737.22	2480.09
737.41	2346.97
737.59	2162.66
737.77	2349.02
737.96	2076.64
738.14	2516.95
738.33	2543.58
738.51	2289.63
738.70	2396.12
738.88	2097.12
739.06	2535.39
739.25	2326.49
739.43	2228.19
739.62	2465.75
739.80	2459.61
739.99	2355.16
740.17	2252.77
740.35	2510.81
740.54	2422.75
740.72	2160.61
740.91	2418.65
741.09	2367.45
741.27	2527.19
741.46	2406.36
741.64	2228.19
741.83	2584.54
742.01	2539.48
742.19	2269.15
742.38	2267.10
742.56	2490.33
742.75	2494.43
742.93	2353.12
743.11	2529.24
743.30	2478.04
743.48	2349.02
743.67	2273.25
743.85	2402.27
744.03	2252.77
744.22	2500.57
744.40	2373.60
744.58	2363.36
744.77	2426.84
744.95	2516.95
745.14	2058.21
745.32	2232.29
745.50	2189.28
745.69	2369.50
745.87	2088.93
746.05	2414.56
746.24	2377.69
746.42	2162.66
746.61	2306.01
746.79	2353.12
746.97	2590.68
747.16	2471.90
747.34	2525.15
747.52	2512.86
747.71	2512.86
747.89	2392.03
748.07	2211.81
748.26	2174.94
748.44	2629.59
748.62	2334.68
748.81	2324.44
748.99	2363.36
749.17	2342.88
749.36	2490.33
749.54	2183.13
749.72	2344.92
749.91	2220.00
750.09	2439.13
750.27	2248.67
750.46	2199.52
750.64	2469.85
750.82	2254.81
751.01	2105.31
751.19	2322.40
751.37	2457.56
751.56	2457.56
751.74	2179.04
751.92	2256.86
752.10	2349.02
752.29	2140.13
752.47	2236.38
752.65	2287.58
752.84	2275.29
753.02	2158.56
753.20	2402.27
753.39	2414.56
753.57	2330.59
753.75	2578.39
753.93	2437.08
754.12	2140.13
754.30	2287.58
754.48	2613.21
754.67	2129.89
754.85	2160.61
755.03	2428.89
755.21	2842.58
755.40	2439.13
755.58	2193.37
755.76	2475.99
755.95	2361.31
756.13	2103.26
756.31	2222.05
756.49	2412.51
756.68	2346.97
756.86	2371.55
757.04	2500.57
757.22	2654.17
757.41	2568.15
757.59	2684.89
757.77	2447.32
757.95	2703.32
758.14	2435.03
758.32	2387.93
758.50	2385.88
758.68	2531.29
758.87	2656.22
759.05	2301.92
759.23	2600.92
759.41	2273.25
759.60	2392.03
759.78	2537.43
759.96	2148.32
760.14	2424.80
760.33	2383.84
760.51	2351.07
760.69	2326.49
760.87	2420.70
761.05	2379.74
761.24	2168.80
761.42	2422.75
761.60	2512.86
761.78	2519.00
761.97	2232.29
762.15	2637.78
762.33	2609.11
762.51	2500.57
762.69	2451.42
762.88	2447.32
763.06	2748.37
763.24	2473.95
763.42	2645.98
763.60	2379.74
763.79	2179.04
763.97	2463.71
764.15	2076.64
764.33	2432.99
764.51	2512.86
764.70	2613.21
764.88	2502.62
765.06	2273.25
765.24	2314.20
765.42	2674.65
765.61	2324.44
765.79	2396.12
765.97	2430.94
766.15	2500.57
766.33	2242.53
766.51	2289.63
766.70	2400.22
766.88	2678.74
767.06	2324.44
767.24	2344.92
767.42	2291.68
767.60	2334.68
767.79	2326.49
767.97	2346.97
768.15	2394.08
768.33	2652.12
768.51	2349.02
768.69	2670.55
768.88	2475.99
769.06	2668.50
769.24	2396.12
769.42	2584.54
769.60	2406.36
769.78	2414.56
769.96	2195.42
770.15	2793.43
770.33	2447.32
770.51	2623.45
770.69	2543.58
770.87	2426.84
771.05	2424.80
771.23	2557.91
771.41	2297.82
771.60	2258.91
771.78	2365.40
771.96	2430.94
772.14	2269.15
772.32	2547.67
772.50	2459.61
772.68	2512.86
772.86	2383.84
773.05	2398.17
773.23	2631.64
773.41	2381.79
773.59	2457.56
773.77	2355.16
773.95	2529.24
774.13	2523.10
774.31	2267.10
774.49	2586.58
774.68	2226.14
774.86	2818.00
775.04	2412.51
775.22	2330.59
775.40	2209.76
775.58	2291.68
775.76	2346.97
775.94	2326.49
776.12	2504.67
776.30	2623.45
776.48	2412.51
776.66	2506.71
776.85	2385.88
777.03	2721.75
777.21	2287.58
777.39	2596.82
777.57	2738.13
777.75	2306.01
777.93	2449.37
778.11	2619.35
778.29	2502.62
778.47	2461.66
778.65	2686.94
778.83	2721.75
779.01	2625.50
779.19	2631.64
779.37	2494.43
779.55	2674.65
779.74	2314.20
779.92	2605.02
780.10	2445.27
780.28	2510.81
780.46	2623.45
780.64	2701.27
780.82	2365.40
781.00	2666.46
781.18	2396.12
781.36	2504.67
781.54	2299.87
781.72	2650.07
781.90	2418.65
782.08	2353.12
782.26	2527.19
782.44	2469.85
782.62	2680.79
782.80	2686.94
782.98	2371.55
783.16	2451.42
783.34	2473.95
783.52	2605.02
783.70	2633.69
783.88	2256.86
784.06	2668.50
784.24	2592.73
784.42	2441.18
784.60	2248.67
784.78	2482.14
784.96	2406.36
785.14	2478.04
785.32	2344.92
785.50	2375.64
785.68	2688.98
785.86	2351.07
786.04	2320.35
786.22	2633.69
786.40	2445.27
786.58	2389.98
786.76	2287.58
786.94	2514.91
787.12	2375.64
787.30	2535.39
787.48	2303.96
787.66	2656.22
787.84	2445.27
788.02	2662.36
788.20	2215.90
788.38	2615.26
788.56	2914.26
788.74	2490.33
788.92	2328.54
789.10	2527.19
789.28	2781.14
789.46	2236.38
789.64	2938.84
789.82	2412.51
790.00	2584.54
790.17	2199.52
790.35	2496.47
790.53	2645.98
790.71	2674.65
790.89	2799.57
791.07	2392.03
791.25	2629.59
791.43	2396.12
791.61	2344.92
791.79	2363.36
791.97	2410.46
792.15	2531.29
792.33	2666.46
792.51	2342.88
792.69	2484.19
792.86	2617.30
793.04	2402.27
793.22	2435.03
793.40	2492.38
793.58	2478.04
793.76	2353.12
793.94	2975.70
794.12	2545.63
794.30	2551.77
794.48	2336.73
794.66	2559.96
794.84	2674.65
795.01	2521.05
795.19	2326.49
795.37	2592.73
795.55	2717.65
795.73	2742.23
795.91	2414.56
796.09	2353.12
796.27	2510.81
796.45	2328.54
796.62	2402.27
796.80	2451.42
796.98	2422.75
797.16	2576.34
797.34	2359.26
797.52	2447.32
797.70	2527.19
797.88	2543.58
798.06	2633.69
798.23	3217.36
798.41	2531.29
798.59	2328.54
798.77	2207.71
798.95	2494.43
799.13	2332.64
799.31	2660.31
799.48	2602.97
799.66	2449.37
799.84	2328.54
800.02	2494.43
800.20	2484.19
800.38	3145.68
800.56	2510.81
800.73	2584.54
800.91	2449.37
801.09	2932.69
801.27	2525.15
801.45	2486.23
801.63	2435.03
801.80	2740.18
801.98	2494.43
802.16	2357.21
802.34	2363.36
802.52	2437.08
802.70	2652.12
802.87	2461.66
803.05	2437.08
803.23	2574.30
803.41	2717.65
803.59	2625.50
803.77	2408.41
803.94	2502.62
804.12	2441.18
804.30	2588.63
804.48	2484.19
804.66	2183.13
804.83	3055.57
805.01	2271.20
805.19	2457.56
805.37	2240.48
805.55	2643.93
805.72	2543.58
805.90	2344.92
806.08	2412.51
806.26	2490.33
806.44	2736.09
806.61	2432.99
806.79	2367.45
806.97	2293.72
807.15	2555.86
807.32	2455.51
807.50	2449.37
807.68	2396.12
807.86	2645.98
808.04	2281.44
808.21	2547.67
808.39	2629.59
808.57	2516.95
808.75	2441.18
808.92	2287.58
809.10	2574.30
809.28	2568.15
809.46	2539.48
809.63	2355.16
809.81	2463.71
809.99	2662.36
810.17	2318.30
810.35	2387.93
810.52	2428.89
810.70	2566.10
810.88	2639.83
811.05	2715.61
811.23	2547.67
811.41	2818.00
811.59	2394.08
811.76	2373.60
811.94	2553.82
812.12	2590.68
812.30	2330.59
812.47	2437.08
812.65	2349.02
812.83	2797.53
813.01	2457.56
813.18	2351.07
813.36	2674.65
813.54	2656.22
813.71	2299.87
813.89	2381.79
814.07	2619.35
814.25	2496.47
814.42	2254.81
814.60	2422.75
814.78	2506.71
814.95	2793.43
815.13	2258.91
815.31	2559.96
815.49	2568.15
815.66	2596.82
815.84	2217.95
816.02	2295.77
816.19	2537.43
816.37	2453.47
816.55	2363.36
816.72	2525.15
816.90	2385.88
817.08	2424.80
817.25	2617.30
817.43	2226.14
817.61	2523.10
817.78	2510.81
817.96	2484.19
818.14	2267.10
818.32	2377.69
818.49	2615.26
818.67	2273.25
818.85	2580.44
819.02	2625.50
819.20	2500.57
819.38	2428.89
819.55	2371.55
819.73	2703.32
819.90	2844.63
820.08	2078.69
820.26	2467.80
820.43	2740.18
820.61	2664.41
820.79	2420.70
820.96	2150.37
821.14	2400.22
821.32	2463.71
821.49	2291.68
821.67	2254.81
821.85	2527.19
822.02	2308.06
822.20	2582.49
822.37	2195.42
822.55	2568.15
822.73	2815.96
822.90	2351.07
823.08	2412.51
823.26	2357.21
823.43	2557.91
823.61	2310.11
823.78	2383.84
823.96	2592.73
824.14	2799.57
824.31	2516.95
824.49	2326.49
824.67	2609.11
824.84	2523.10
825.02	2404.32
825.19	2189.28
825.37	2926.55
825.55	2475.99
825.72	2688.98
825.90	2705.37
826.07	2504.67
826.25	2707.41
826.43	2129.89
826.60	2486.23
826.78	2609.11
826.95	2658.26
827.13	2263.01
827.30	2531.29
827.48	2521.05
827.66	2492.38
827.83	2451.42
828.01	2441.18
828.18	2502.62
828.36	2490.33
828.53	2172.89
828.71	2306.01
828.89	2510.81
829.06	2645.98
829.24	2287.58
829.41	2263.01
829.59	2306.01
829.76	2465.75
829.94	2316.25
830.11	2383.84
830.29	2367.45
830.47	2623.45
830.64	2287.58
830.82	2592.73
830.99	2394.08
831.17	2562.01
831.34	2713.56
831.52	2332.64
831.69	2432.99
831.87	2676.70
832.04	2473.95
832.22	2320.35
832.40	2365.40
832.57	2580.44
832.75	2140.13
832.92	2207.71
833.10	2562.01
833.27	2815.96
833.45	2500.57
833.62	2334.68
833.80	2549.72
833.97	2584.54
834.15	2715.61
834.32	2387.93
834.50	2355.16
834.67	2883.54
834.85	2365.40
835.02	2502.62
835.20	2652.12
835.37	2885.59
835.55	2355.16
835.72	2617.30
835.90	2383.84
836.07	2756.57
836.25	2506.71
836.42	2539.48
836.60	2486.23
836.77	2666.46
836.95	2707.41
837.12	2660.31
837.30	2588.63
837.47	2406.36
837.65	2265.05
837.82	2338.78
838.00	2533.34
838.17	2412.51
838.34	2244.57
838.52	2363.36
838.69	2688.98
838.87	2686.94
839.04	2480.09
839.22	2226.14
839.39	2516.95
839.57	2547.67
839.74	2383.84
839.92	2308.06
840.09	2463.71
840.26	2670.55
840.44	2322.40
840.61	2418.65
840.79	2248.67
840.96	2299.87
841.14	2523.10
841.31	2254.81
841.49	2406.36
841.66	2521.05
841.83	2475.99
842.01	2602.97
842.18	2486.23
842.36	2592.73
842.53	2310.11
842.71	2617.30
842.88	2273.25
843.05	2545.63
843.23	2473.95
843.40	2248.67
843.58	2693.08
843.75	2598.87
843.92	2285.53
844.10	2383.84
844.27	2475.99
844.45	2672.60
844.62	2306.01
844.80	2551.77
844.97	2349.02
845.14	2576.34
845.32	2232.29
845.49	2170.85
845.66	2521.05
845.84	2426.84
846.01	2381.79
846.19	2369.50
846.36	2848.72
846.53	2934.74
846.71	2346.97
846.88	2457.56
847.06	2371.55
847.23	2478.04
847.40	2265.05
847.58	2498.52
847.75	2619.35
847.92	3008.47
848.10	2320.35
848.27	2519.00
848.45	2613.21
848.62	2715.61
848.79	2045.92
848.97	2523.10
849.14	2494.43
849.31	2369.50
849.49	2451.42
849.66	2187.23
849.83	2510.81
850.01	2744.28
850.18	2394.08
850.35	2478.04
850.53	2772.95
850.70	2629.59
850.87	2447.32
851.05	2422.75
851.22	2668.50
851.39	3096.53
851.57	2275.29
851.74	2283.49
851.91	2285.53
852.09	2555.86
852.26	2480.09
852.43	2166.75
852.61	2572.25
852.78	2404.32
852.95	2664.41
853.13	2199.52
853.30	2660.31
853.47	2754.52
853.65	2582.49
853.82	2334.68
853.99	2465.75
854.16	2760.66
854.34	2197.47
854.51	2144.22
854.68	2441.18
854.86	2617.30
855.03	2234.33
855.20	2222.05
855.38	2486.23
855.55	2629.59
855.72	2054.11
855.89	2121.70
856.07	2813.91
856.24	2537.43
856.41	2090.98
856.59	2389.98
856.76	2506.71
856.93	2822.10
857.10	2166.75
857.28	2160.61
857.45	2453.47
857.62	2648.02
857.79	2238.43
857.97	2025.44
858.14	2504.67
858.31	2539.48
858.48	2066.40
858.66	2344.92
858.83	2740.18
859.00	2547.67
859.17	2306.01
859.35	2310.11
859.52	2645.98
859.69	2482.14
859.86	2271.20
860.04	2228.19
860.21	2494.43
860.38	2691.03
860.55	2142.18
860.73	2334.68
860.90	2308.06
861.07	2881.49
861.24	2291.68
861.42	2238.43
861.59	2469.85
861.76	2461.66
861.93	2060.26
862.10	2146.27
862.28	2772.95
862.45	2572.25
862.62	2101.22
862.79	2392.03
862.96	2498.52
863.14	2744.28
863.31	2306.01
863.48	2547.67
863.65	2467.80
863.83	2688.98
864.00	2494.43
864.17	2054.11
864.34	2699.22
864.51	2525.15
864.68	2115.55
864.86	2539.48
865.03	2482.14
865.20	2678.74
865.37	2308.06
865.54	2207.71
865.72	2494.43
865.89	2547.67
866.06	2230.24
866.23	2555.86
866.40	2658.26
866.57	2818.00
866.75	2406.36
866.92	2090.98
867.09	2527.19
867.26	2664.41
867.43	2351.07
867.60	2222.05
867.78	2537.43
867.95	2824.15
868.12	2312.16
868.29	2021.35
868.46	2746.33
868.63	2725.85
868.81	2256.86
868.98	2207.71
869.15	2738.13
869.32	2731.99
869.49	2097.12
869.66	2256.86
869.83	2580.44
870.00	2633.69
870.18	2312.16
870.35	2297.82
870.52	2510.81
870.69	2756.57
870.86	2406.36
871.03	2234.33
871.20	2496.47
871.37	2555.86
871.55	2203.61
871.72	2031.58
871.89	2529.24
872.06	2568.15
872.23	2303.96
872.40	2181.09
872.57	2705.37
872.74	2592.73
872.91	2093.02
873.09	2220.00
873.26	2764.76
873.43	2357.21
873.60	2207.71
873.77	2279.39
873.94	2688.98
874.11	2605.02
874.28	2246.62
874.45	2144.22
874.62	2586.58
874.79	2711.51
874.97	2281.44
875.14	2265.05
875.31	2551.77
875.48	2531.29
875.65	2138.08
875.82	2422.75
875.99	2551.77
876.16	2623.45
876.33	2244.57
876.50	2617.30
876.67	3143.63
876.84	2705.37
877.01	2181.09
877.18	2459.61
877.35	2592.73
877.53	2592.73
877.70	2207.71
877.87	2301.92
878.04	2439.13
878.21	2666.46
878.38	2207.71
878.55	2183.13
878.72	2629.59
878.89	2856.92
879.06	2353.12
879.23	2389.98
879.40	2559.96
879.57	2746.33
879.74	2199.52
879.91	2392.03
880.08	2529.24
880.25	2656.22
880.42	2207.71
880.59	2183.13
880.76	2543.58
880.93	2731.99
881.10	2220.00
881.27	2312.16
881.44	2500.57
881.61	2865.11
881.78	2099.17
881.95	2355.16
882.12	2480.09
882.29	2652.12
882.46	2240.48
882.63	2279.39
882.80	2588.63
882.97	2650.07
883.14	2367.45
883.31	2230.24
883.48	2678.74
883.65	2877.40
883.82	2189.28
883.99	2420.70
884.16	3096.53
884.33	2744.28
884.50	2267.10
884.67	2185.18
884.84	2830.29
885.01	2506.71
885.18	2361.31
885.35	2088.93
885.52	2879.44
885.69	2607.06
885.86	2340.83
886.03	2076.64
886.20	3035.09
886.37	2572.25
886.54	2387.93
886.71	2027.49
886.87	2938.84
887.04	2686.94
887.21	2318.30
887.38	2129.89
887.55	2361.31
887.72	2578.39
887.89	2355.16
888.06	2095.07
888.23	2547.67
888.40	2994.13
888.57	2234.33
888.74	2271.20
888.91	2535.39
889.08	2379.74
889.25	2287.58
889.42	2131.94
889.58	2723.80
889.75	2863.06
889.92	2269.15
890.09	2475.99
890.26	3878.85
890.43	2537.43
890.60	2416.60
890.77	2138.08
890.94	2600.92
891.11	2326.49
891.28	2138.08
891.44	2308.06
891.61	2588.63
891.78	2400.22
891.95	2334.68
892.12	2371.55
892.29	2484.19
892.46	2873.30
892.63	2312.16
892.80	2144.22
892.96	2635.74
893.13	2648.02
893.30	2449.37
893.47	2357.21
893.64	2875.35
893.81	2371.55
893.98	2131.94
894.15	2287.58
894.31	2619.35
894.48	2498.52
894.65	2279.39
894.82	2645.98
894.99	2781.14
895.16	2516.95
895.33	2547.67
895.49	2328.54
895.66	2422.75
895.83	2521.05
896.00	1947.62
896.17	2183.13
896.34	2498.52
896.50	2738.13
896.67	2113.50
896.84	2156.51
897.01	2533.34
897.18	2457.56
897.35	2230.24
897.51	2197.47
897.68	2678.74
897.85	2815.96
898.02	2205.66
898.19	2060.26
898.36	2514.91
898.52	2926.55
898.69	2693.08
898.86	2607.06
899.03	2318.30
899.20	2504.67
899.36	2152.42
899.53	2152.42
899.70	2412.51
899.87	2629.59
900.04	2035.68
900.20	2625.50
900.37	2469.85
900.54	2465.75
900.71	2195.42
900.88	2482.14
901.04	2443.23
901.21	2451.42
901.38	2140.13
901.55	2193.37
901.72	2363.36
901.88	2447.32
902.05	2252.77
902.22	2248.67
902.39	2594.78
902.55	2506.71
902.72	2207.71
902.89	2129.89
903.06	2379.74
903.23	2432.99
903.39	2281.44
903.56	2199.52
903.73	2764.76
903.90	2269.15
904.06	2359.26
904.23	2365.40
904.40	2559.96
904.57	2744.28
904.73	2330.59
904.90	2416.60
905.07	2637.78
905.24	2363.36
905.40	2136.03
905.57	2111.46
905.74	2815.96
905.91	2191.33
906.07	2320.35
906.24	2469.85
906.41	2621.40
906.57	2723.80
906.74	2314.20
906.91	2256.86
907.08	2502.62
907.24	2600.92
907.41	2424.80
907.58	2195.42
907.75	2578.39
907.91	2523.10
908.08	2506.71
908.25	2463.71
908.41	2641.88
908.58	2867.16
908.75	2332.64
908.91	2408.41
909.08	2670.55
909.25	2582.49
909.42	2371.55
>>>>>End Processed Spectral Data<<<<<
