SpectraSuite Data File
++++++++++++++++++++++++++++++++++++
Date: Fri Feb 07 19:37:27 EST 2020
User: BHM
Dark Spectrum Present: No
Reference Spectrum Present: No
Number of Sampled Component Spectra: 1
Spectrometers: USB4H07074
Integration Time (usec): 1000000 (USB4H07074)
Spectra Averaged: 1 (USB4H07074)
Boxcar Smoothing: 0 (USB4H07074)
Correct for Electrical Dark: No (USB4H07074)
Strobe/Lamp Enabled: No (USB4H07074)
Correct for Detector Non-linearity: No (USB4H07074)
Correct for Stray Light: No (USB4H07074)
Number of Pixels in Processed Spectrum: 3648
>>>>>Begin Processed Spectral Data<<<<<
194.67	1298.41
194.89	1298.41
195.11	1298.41
195.33	1331.18
195.55	1351.66
195.77	2377.69
195.99	2420.70
196.21	1988.58
196.42	2109.41
196.64	2410.46
196.86	2365.40
197.08	2101.22
197.30	2238.43
197.52	2148.32
197.74	2070.50
197.96	1904.61
198.18	2123.74
198.40	2338.78
198.61	2533.34
198.83	2422.75
199.05	2211.81
199.27	2418.65
199.49	2641.88
199.71	2490.33
199.93	2222.05
200.15	2486.23
200.37	2428.89
200.58	2097.12
200.80	2580.44
201.02	2572.25
201.24	2383.84
201.46	2463.71
201.68	2377.69
201.90	2267.10
202.12	2697.17
202.34	2521.05
202.55	2666.46
202.77	2441.18
202.99	2432.99
203.21	2385.88
203.43	2484.19
203.65	2416.60
203.87	2357.21
204.09	2494.43
204.30	2664.41
204.52	2787.29
204.74	2377.69
204.96	2248.67
205.18	2445.27
205.40	2539.48
205.62	2258.91
205.84	2555.86
206.05	2502.62
206.27	2555.86
206.49	2482.14
206.71	2293.72
206.93	2371.55
207.15	2629.59
207.37	2748.37
207.58	2416.60
207.80	2076.64
208.02	2408.41
208.24	2416.60
208.46	2144.22
208.68	2275.29
208.90	2762.71
209.11	2475.99
209.33	2119.65
209.55	2344.92
209.77	2299.87
209.99	2453.47
210.21	2312.16
210.43	2254.81
210.64	2621.40
210.86	2494.43
211.08	2072.54
211.30	2607.06
211.52	2459.61
211.74	2353.12
211.95	2234.33
212.17	2582.49
212.39	2418.65
212.61	2678.74
212.83	2197.47
213.05	2170.85
213.26	2531.29
213.48	2523.10
213.70	2170.85
213.92	2207.71
214.14	2639.83
214.36	2220.00
214.57	2187.23
214.79	2549.72
215.01	2613.21
215.23	2715.61
215.45	2338.78
215.67	2281.44
215.88	2533.34
216.10	2736.09
216.32	1955.81
216.54	2158.56
216.76	2445.27
216.97	2496.47
217.19	2228.19
217.41	2199.52
217.63	2516.95
217.85	2633.69
218.07	2183.13
218.28	2545.63
218.50	2641.88
218.72	2580.44
218.94	2297.82
219.16	2549.72
219.37	2324.44
219.59	2586.58
219.81	2095.07
220.03	2338.78
220.25	2549.72
220.46	2670.55
220.68	2207.71
220.90	2170.85
221.12	2510.81
221.34	2330.59
221.55	2273.25
221.77	2095.07
221.99	2299.87
222.21	2445.27
222.43	2502.62
222.64	2107.36
222.86	2734.04
223.08	2367.45
223.30	2273.25
223.52	2267.10
223.73	2529.24
223.95	2936.79
224.17	2312.16
224.39	2088.93
224.60	2512.86
224.82	2418.65
225.04	2260.96
225.26	2287.58
225.48	2258.91
225.69	2615.26
225.91	2273.25
226.13	2629.59
226.35	2510.81
226.56	2422.75
226.78	2220.00
227.00	2189.28
227.22	2568.15
227.44	2480.09
227.65	2125.79
227.87	2410.46
228.09	2293.72
228.31	2684.89
228.52	2174.94
228.74	2234.33
228.96	2574.30
229.18	2457.56
229.39	2500.57
229.61	2199.52
229.83	2289.63
230.05	2480.09
230.26	2699.22
230.48	2404.32
230.70	2445.27
230.92	2248.67
231.13	2244.57
231.35	2365.40
231.57	2449.37
231.79	2598.87
232.00	2271.20
232.22	2148.32
232.44	2492.38
232.66	2553.82
232.87	2441.18
233.09	2217.95
233.31	2738.13
233.53	2420.70
233.74	2478.04
233.96	2533.34
234.18	2349.02
234.40	2525.15
234.61	2238.43
234.83	2211.81
235.05	2500.57
235.27	2566.10
235.48	2279.39
235.70	2273.25
235.92	2478.04
236.14	2449.37
236.35	2213.85
236.57	2506.71
236.79	2531.29
237.00	2410.46
237.22	2260.96
237.44	2494.43
237.66	2385.88
237.87	2744.28
238.09	2170.85
238.31	2064.35
238.53	2359.26
238.74	2512.86
238.96	2207.71
239.18	2195.42
239.39	2295.77
239.61	2648.02
239.83	2250.72
240.05	2283.49
240.26	2240.48
240.48	2525.15
240.70	2428.89
240.91	2566.10
241.13	2392.03
241.35	2170.85
241.56	2244.57
241.78	2246.62
242.00	2516.95
242.22	2645.98
242.43	2539.48
242.65	2590.68
242.87	2469.85
243.08	2555.86
243.30	2351.07
243.52	2379.74
243.73	2883.54
243.95	2613.21
244.17	2371.55
244.39	2093.02
244.60	2506.71
244.82	2570.20
245.04	2256.86
245.25	2076.64
245.47	2435.03
245.69	2447.32
245.90	2172.89
246.12	1955.81
246.34	2607.06
246.55	2545.63
246.77	2600.92
246.99	2494.43
247.20	2465.75
247.42	2744.28
247.64	2052.06
247.86	2045.92
248.07	2707.41
248.29	2475.99
248.51	2301.92
248.72	2314.20
248.94	2623.45
249.16	2463.71
249.37	2129.89
249.59	2543.58
249.81	2334.68
250.02	2441.18
250.24	2514.91
250.46	2420.70
250.67	2549.72
250.89	2389.98
251.11	2129.89
251.32	2299.87
251.54	2516.95
251.76	2428.89
251.97	2174.94
252.19	2326.49
252.40	2299.87
252.62	2553.82
252.84	2443.23
253.05	2387.93
253.27	2881.49
253.49	2535.39
253.70	2277.34
253.92	2596.82
254.14	2711.51
254.35	2519.00
254.57	2226.14
254.79	2174.94
255.00	2899.92
255.22	2688.98
255.44	2367.45
255.65	2394.08
255.87	2410.46
256.08	2424.80
256.30	2136.03
256.52	2312.16
256.73	2545.63
256.95	2584.54
257.17	2125.79
257.38	2539.48
257.60	2443.23
257.82	2482.14
258.03	2119.65
258.25	2168.80
258.46	2377.69
258.68	2551.77
258.90	2220.00
259.11	2101.22
259.33	2705.37
259.55	2351.07
259.76	2402.27
259.98	2301.92
260.19	2133.98
260.41	2432.99
260.63	2179.04
260.84	2334.68
261.06	2426.84
261.27	2682.84
261.49	2205.66
261.71	2320.35
261.92	2320.35
262.14	2566.10
262.35	2207.71
262.57	2029.54
262.79	2353.12
263.00	2566.10
263.22	2148.32
263.44	2246.62
263.65	2478.04
263.87	2605.02
264.08	2246.62
264.30	2361.31
264.52	2478.04
264.73	2592.73
264.95	2228.19
265.16	2387.93
265.38	2467.80
265.59	2445.27
265.81	2549.72
266.03	2299.87
266.24	2455.51
266.46	2459.61
266.67	2459.61
266.89	2543.58
267.11	2478.04
267.32	2328.54
267.54	2295.77
267.75	2353.12
267.97	2299.87
268.19	2338.78
268.40	2090.98
268.62	2117.60
268.83	2500.57
269.05	2418.65
269.26	2482.14
269.48	2449.37
269.70	2400.22
269.91	2600.92
270.13	2322.40
270.34	2404.32
270.56	2320.35
270.77	2353.12
270.99	2097.12
271.21	2480.09
271.42	2400.22
271.64	2627.54
271.85	2279.39
272.07	2459.61
272.28	2623.45
272.50	2607.06
272.71	2674.65
272.93	2314.20
273.15	2256.86
273.36	2383.84
273.58	2224.09
273.79	2275.29
274.01	2744.28
274.22	2811.86
274.44	2246.62
274.65	2246.62
274.87	2320.35
275.09	2473.95
275.30	2129.89
275.52	2334.68
275.73	2473.95
275.95	2695.13
276.16	2572.25
276.38	2453.47
276.59	2629.59
276.81	2703.32
277.02	2379.74
277.24	2158.56
277.45	2924.50
277.67	2535.39
277.89	2191.33
278.10	2465.75
278.32	2357.21
278.53	2441.18
278.75	2254.81
278.96	2502.62
279.18	2383.84
279.39	2463.71
279.61	2260.96
279.82	2392.03
280.04	2392.03
280.25	2402.27
280.47	2158.56
280.68	2174.94
280.90	2457.56
281.11	2318.30
281.33	2097.12
281.54	2181.09
281.76	2400.22
281.97	2281.44
282.19	2277.34
282.40	2475.99
282.62	2310.11
282.83	2813.91
283.05	2193.37
283.27	2363.36
283.48	2207.71
283.70	2578.39
283.91	2351.07
284.13	2289.63
284.34	2301.92
284.56	2568.15
284.77	2297.82
284.99	2344.92
285.20	2408.41
285.42	2598.87
285.63	2389.98
285.84	2389.98
286.06	2506.71
286.27	2199.52
286.49	2254.81
286.70	2246.62
286.92	2439.13
287.13	2371.55
287.35	2361.31
287.56	2381.79
287.78	2756.57
287.99	2269.15
288.21	2201.57
288.42	2871.25
288.64	2723.80
288.85	2654.17
289.07	2412.51
289.28	2365.40
289.50	2342.88
289.71	2508.76
289.93	2258.91
290.14	2170.85
290.36	2662.36
290.57	2248.67
290.79	2564.06
291.00	2445.27
291.22	2451.42
291.43	2834.39
291.64	2392.03
291.86	2371.55
292.07	2607.06
292.29	2736.09
292.50	2463.71
292.72	2201.57
292.93	2815.96
293.15	2779.09
293.36	2475.99
293.58	2404.32
293.79	2535.39
294.00	2721.75
294.22	2258.91
294.43	2353.12
294.65	2975.70
294.86	2652.12
295.08	2478.04
295.29	2969.55
295.51	2744.28
295.72	2858.96
295.94	2492.38
296.15	2160.61
296.36	2519.00
296.58	2498.52
296.79	2551.77
297.01	2435.03
297.22	2582.49
297.44	2600.92
297.65	2652.12
297.86	2648.02
298.08	2580.44
298.29	2861.01
298.51	2627.54
298.72	2385.88
298.94	2451.42
299.15	2701.27
299.36	2494.43
299.58	2338.78
299.79	2791.38
300.01	2621.40
300.22	2519.00
300.44	2318.30
300.65	2602.97
300.86	2435.03
301.08	2488.28
301.29	2396.12
301.51	2916.31
301.72	3049.43
301.93	2463.71
302.15	2508.76
302.36	2873.30
302.58	2711.51
302.79	2678.74
303.01	2326.49
303.22	2668.50
303.43	2797.53
303.65	2377.69
303.86	2543.58
304.08	2637.78
304.29	2637.78
304.50	2613.21
304.72	2326.49
304.93	2533.34
305.15	3016.66
305.36	2406.36
305.57	2607.06
305.79	2494.43
306.00	2723.80
306.22	2559.96
306.43	2627.54
306.64	2709.46
306.86	2996.18
307.07	2621.40
307.28	2475.99
307.50	2709.46
307.71	2836.44
307.93	2385.88
308.14	2559.96
308.35	2707.41
308.57	2783.19
308.78	2521.05
309.00	2609.11
309.21	2740.18
309.42	2750.42
309.64	2453.47
309.85	2320.35
310.06	2596.82
310.28	2701.27
310.49	2531.29
310.71	2174.94
310.92	2846.68
311.13	2602.97
311.35	2449.37
311.56	2787.29
311.77	2725.85
311.99	2944.98
312.20	2516.95
312.41	2731.99
312.63	2762.71
312.84	2607.06
313.06	2451.42
313.27	2686.94
313.48	2568.15
313.70	2633.69
313.91	2584.54
314.12	2353.12
314.34	2762.71
314.55	2617.30
314.76	2707.41
314.98	2529.24
315.19	2555.86
315.40	2768.85
315.62	2613.21
315.83	2834.39
316.04	2848.72
316.26	2881.49
316.47	2639.83
316.68	2598.87
316.90	2654.17
317.11	2795.48
317.32	2785.24
317.54	2467.80
317.75	2723.80
317.96	2678.74
318.18	2430.94
318.39	2555.86
318.60	2654.17
318.82	2502.62
319.03	2414.56
319.24	2451.42
319.46	2881.49
319.67	2772.95
319.88	2371.55
320.10	2502.62
320.31	2592.73
320.52	2621.40
320.74	2291.68
320.95	2328.54
321.16	2443.23
321.38	2996.18
321.59	2492.38
321.80	2312.16
322.02	2525.15
322.23	3117.01
322.44	2492.38
322.65	2287.58
322.87	2738.13
323.08	2605.02
323.29	2623.45
323.51	2701.27
323.72	2811.86
323.93	2750.42
324.15	2488.28
324.36	2600.92
324.57	2664.41
324.78	2637.78
325.00	2731.99
325.21	2602.97
325.42	2672.60
325.64	2764.76
325.85	2584.54
326.06	2324.44
326.28	2572.25
326.49	2500.57
326.70	2514.91
326.91	2666.46
327.13	2803.67
327.34	2762.71
327.55	2736.09
327.77	2424.80
327.98	2680.79
328.19	2588.63
328.40	2543.58
328.62	2396.12
328.83	2742.23
329.04	2613.21
329.25	2480.09
329.47	2478.04
329.68	2641.88
329.89	2668.50
330.11	2482.14
330.32	2564.06
330.53	2609.11
330.74	2899.92
330.96	2725.85
331.17	2381.79
331.38	2942.93
331.59	2740.18
331.81	2588.63
332.02	2551.77
332.23	2766.81
332.44	2793.43
332.66	2748.37
332.87	2353.12
333.08	2709.46
333.29	2901.97
333.51	3024.85
333.72	2469.85
333.93	2510.81
334.14	2969.55
334.36	2738.13
334.57	2600.92
334.78	2969.55
334.99	2955.22
335.21	2762.71
335.42	2666.46
335.63	2830.29
335.84	2754.52
336.06	2602.97
336.27	2512.86
336.48	2695.13
336.69	2869.20
336.91	2748.37
337.12	2668.50
337.33	2930.64
337.54	2598.87
337.75	2963.41
337.97	2443.23
338.18	2895.83
338.39	2580.44
338.60	2490.33
338.82	2934.74
339.03	2805.72
339.24	2652.12
339.45	2621.40
339.66	2580.44
339.88	3246.03
340.09	2662.36
340.30	2631.64
340.51	2727.89
340.73	2895.83
340.94	3207.12
341.15	2676.70
341.36	2820.05
341.57	2766.81
341.79	2820.05
342.00	2633.69
342.21	2648.02
342.42	2578.39
342.63	2928.60
342.85	2867.16
343.06	2658.26
343.27	2613.21
343.48	2768.85
343.69	2713.56
343.91	2975.70
344.12	3022.80
344.33	2828.24
344.54	3088.34
344.75	2674.65
344.97	2854.87
345.18	2736.09
345.39	2713.56
345.60	2670.55
345.81	2865.11
346.02	2844.63
346.24	2965.46
346.45	2795.48
346.66	2815.96
346.87	2809.81
347.08	2506.71
347.30	2682.84
347.51	2932.69
347.72	2875.35
347.93	2858.96
348.14	2996.18
348.35	2762.71
348.57	2971.60
348.78	2498.52
348.99	2856.92
349.20	2762.71
349.41	3393.48
349.62	3512.27
349.84	3000.27
350.05	2994.13
350.26	2926.55
350.47	2990.03
350.68	2930.64
350.89	3112.91
351.11	3059.67
351.32	3082.19
351.53	3080.14
351.74	3178.45
351.95	3624.90
352.16	3239.89
352.37	3280.85
352.59	3327.95
352.80	3706.82
353.01	3278.80
353.22	3620.81
353.43	3696.58
353.64	3774.41
353.86	3680.20
354.07	4007.87
354.28	4061.12
354.49	4444.09
354.70	4499.39
354.91	4597.69
355.12	5275.57
355.33	5803.94
355.55	5736.36
355.76	6365.09
355.97	7057.30
356.18	7862.15
356.39	8531.84
356.60	9232.24
356.81	10655.58
357.03	12273.48
357.24	13682.48
357.45	16060.17
357.66	18439.91
357.87	21737.14
358.08	24864.39
358.29	30004.79
358.50	36134.36
358.71	42589.56
358.93	51490.03
359.14	60986.46
359.35	65535.00
359.56	65535.00
359.77	65535.00
359.98	65535.00
360.19	65535.00
360.40	65535.00
360.61	65535.00
360.83	65535.00
361.04	65535.00
361.25	65535.00
361.46	65535.00
361.67	65535.00
361.88	65535.00
362.09	65535.00
362.30	65535.00
362.51	65535.00
362.72	65535.00
362.94	65535.00
363.15	65535.00
363.36	65535.00
363.57	65535.00
363.78	65535.00
363.99	65535.00
364.20	65535.00
364.41	65535.00
364.62	65535.00
364.83	65535.00
365.04	65535.00
365.26	65535.00
365.47	65535.00
365.68	65535.00
365.89	65535.00
366.10	65535.00
366.31	65535.00
366.52	65535.00
366.73	65535.00
366.94	65535.00
367.15	65535.00
367.36	65535.00
367.57	65535.00
367.78	65535.00
367.99	65535.00
368.21	65535.00
368.42	65535.00
368.63	65535.00
368.84	65535.00
369.05	65535.00
369.26	65535.00
369.47	65535.00
369.68	65535.00
369.89	65535.00
370.10	65535.00
370.31	65535.00
370.52	65535.00
370.73	65535.00
370.94	65535.00
371.15	65535.00
371.36	65535.00
371.57	65535.00
371.78	65535.00
371.99	65535.00
372.20	65535.00
372.42	65535.00
372.63	65535.00
372.84	65535.00
373.05	65535.00
373.26	65535.00
373.47	65535.00
373.68	65535.00
373.89	65535.00
374.10	65535.00
374.31	65535.00
374.52	65535.00
374.73	65535.00
374.94	65535.00
375.15	65535.00
375.36	65535.00
375.57	65535.00
375.78	65535.00
375.99	65535.00
376.20	65535.00
376.41	65535.00
376.62	65535.00
376.83	65535.00
377.04	65535.00
377.25	65535.00
377.46	65535.00
377.67	65535.00
377.88	65535.00
378.09	65535.00
378.30	65535.00
378.51	65535.00
378.72	65535.00
378.93	65535.00
379.14	65535.00
379.35	65535.00
379.56	65535.00
379.77	65535.00
379.98	65535.00
380.19	65535.00
380.40	65535.00
380.61	65535.00
380.82	65535.00
381.03	65535.00
381.24	65535.00
381.45	65535.00
381.66	65535.00
381.87	65535.00
382.08	65535.00
382.29	65535.00
382.50	65535.00
382.71	65535.00
382.92	65535.00
383.13	65535.00
383.34	65535.00
383.55	65535.00
383.76	65535.00
383.97	65535.00
384.18	65535.00
384.39	65535.00
384.60	65535.00
384.81	65535.00
385.02	65535.00
385.23	65535.00
385.44	65535.00
385.65	65535.00
385.86	65535.00
386.07	65535.00
386.28	65535.00
386.49	65535.00
386.70	65535.00
386.91	65535.00
387.11	65535.00
387.32	65535.00
387.53	65535.00
387.74	65535.00
387.95	4007.87
388.16	3747.78
388.37	3854.28
388.58	3749.83
388.79	3594.19
389.00	3739.59
389.21	3485.64
389.42	3401.68
389.63	3286.99
389.84	3710.92
390.05	3391.44
390.26	3362.76
390.47	3203.02
390.68	3481.55
390.89	3248.08
391.09	3571.66
391.30	3405.77
391.51	3651.53
391.72	3110.86
391.93	3483.59
392.14	3346.38
392.35	3129.30
392.56	3522.51
392.77	3280.85
392.98	3246.03
393.19	3350.48
393.40	3489.74
393.61	3215.31
393.82	3538.89
394.02	3381.20
394.23	3407.82
394.44	3330.00
394.65	3450.83
394.86	3321.81
395.07	3418.06
395.28	3301.33
395.49	3303.37
395.70	3559.37
395.91	3561.42
396.12	3256.27
396.32	3612.62
396.53	3530.70
396.74	3444.68
396.95	3536.84
397.16	4022.21
397.37	3407.82
397.58	3768.26
397.79	3416.01
398.00	3635.14
398.21	3805.13
398.41	3710.92
398.62	3704.78
398.83	3706.82
399.04	4466.62
399.25	3889.09
399.46	3760.07
399.67	3663.82
399.88	4052.93
400.09	3694.54
400.29	3846.09
400.50	3991.49
400.71	3620.81
400.92	3860.42
401.13	3809.22
401.34	4052.93
401.55	3848.13
401.76	4194.24
401.96	4079.55
402.17	4100.03
402.38	4057.03
402.59	4227.01
402.80	4100.03
403.01	4349.89
403.22	4433.85
403.43	4583.35
403.63	4278.21
403.84	4624.31
404.05	4796.34
404.26	4562.87
404.47	4741.05
404.68	4929.46
404.89	5007.28
405.09	5083.06
405.30	5001.14
405.51	5396.40
405.72	5752.74
405.93	5681.07
406.14	5805.99
406.35	6205.35
406.55	6360.99
406.76	6416.29
406.97	6592.41
407.18	7022.48
407.39	7298.96
407.60	7485.33
407.80	7540.62
408.01	7993.22
408.22	8296.32
408.43	8105.86
408.64	8619.90
408.85	8869.75
409.05	9295.73
409.26	9801.58
409.47	10155.88
409.68	10202.98
409.89	10649.44
410.10	10878.81
410.30	11781.96
410.51	11841.36
410.72	12781.37
410.93	12525.38
411.14	13156.15
411.35	13590.32
411.55	14178.09
411.76	14745.38
411.97	15243.03
412.18	16125.71
412.39	16221.96
412.59	16615.17
412.80	17114.87
413.01	18380.52
413.22	18628.32
413.43	19087.07
413.63	19687.12
413.84	20213.45
414.05	20795.07
414.26	21669.56
414.47	22226.60
414.67	23107.23
414.88	23418.52
415.09	23572.12
415.30	24444.56
415.51	25593.47
415.71	26211.95
415.92	26472.04
416.13	27010.66
416.34	27557.47
416.55	28200.53
416.75	28776.01
416.96	29204.03
417.17	30344.75
417.38	30854.70
417.59	31589.92
417.79	31698.46
418.00	32089.62
418.21	33521.15
418.42	33486.34
418.62	34010.62
418.83	34655.73
419.04	34991.59
419.25	35970.52
419.46	36341.21
419.66	37213.64
419.87	37103.05
420.08	37922.24
420.29	37653.95
420.49	38475.19
420.70	39212.46
420.91	39130.54
421.12	39001.52
421.32	39679.39
421.53	40281.50
421.74	40711.57
421.95	40482.20
422.15	40826.26
422.36	41350.54
422.57	41803.14
422.78	41776.51
422.98	42351.99
423.19	42958.19
423.40	41598.34
423.61	42976.62
423.81	43830.63
424.02	43048.30
424.23	43699.56
424.44	43427.18
424.64	43515.24
424.85	43603.30
425.06	44287.32
425.27	43222.38
425.47	44463.45
425.68	43908.45
425.89	44254.56
426.10	44733.78
426.30	44598.62
426.51	44045.66
426.72	44342.62
426.92	44502.36
427.13	44596.57
427.34	44670.29
427.55	44864.85
427.75	44852.56
427.96	44815.70
428.17	45356.36
428.38	44735.83
428.58	44541.27
428.79	44569.94
429.00	44709.21
429.20	44787.03
429.41	44258.65
429.62	44223.84
429.82	44152.16
430.03	44346.72
430.24	44553.56
430.45	44574.04
430.65	45028.69
430.86	45086.03
431.07	44092.77
431.27	44535.13
431.48	44684.63
431.69	43576.68
431.90	44293.47
432.10	43957.60
432.31	44293.47
432.52	44033.38
432.72	43838.82
432.93	44150.11
433.14	43525.48
433.34	44092.77
433.55	43584.87
433.76	44260.70
433.96	44373.34
434.17	43568.49
434.38	44000.61
434.58	44076.38
434.79	43564.39
435.00	43705.70
435.21	44119.39
435.41	44320.09
435.62	43281.77
435.83	43623.78
436.03	42745.20
436.24	43361.64
436.45	43046.26
436.65	43150.70
436.86	43679.08
437.07	43390.31
437.27	43136.37
437.48	43832.68
437.69	43957.60
437.89	43386.22
438.10	43283.82
438.31	43433.32
438.51	43130.22
438.72	43357.55
438.92	43615.59
439.13	42669.43
439.34	42915.19
439.54	43875.68
439.75	43978.08
439.96	42098.05
440.16	42007.94
440.37	43181.42
440.58	42653.05
440.78	42386.81
440.99	41913.73
441.20	42732.92
441.40	42927.47
441.61	42323.32
441.82	42427.77
442.02	42567.03
442.23	41688.45
442.43	41989.50
442.64	42888.56
442.85	42421.62
443.05	42323.32
443.26	42552.69
443.47	41596.29
443.67	42247.55
443.88	42407.29
444.08	42190.20
444.29	40912.27
444.50	41598.34
444.70	41024.91
444.91	41467.27
445.12	41325.96
445.32	40670.61
445.53	40922.51
445.73	41557.38
445.94	40813.97
446.15	40162.72
446.35	41076.11
446.56	40957.33
446.76	40793.49
446.97	40392.09
447.18	39966.11
447.38	39802.27
447.59	39890.34
447.79	39822.75
448.00	39792.03
448.21	39339.43
448.41	39159.21
448.62	39284.14
448.82	39277.99
449.03	38671.79
449.24	38315.45
449.44	38532.53
449.65	38739.38
449.85	39302.57
450.06	38503.86
450.27	37617.09
450.47	37965.24
450.68	37674.43
450.88	38104.51
451.09	37594.56
451.29	37514.69
451.50	37070.28
451.71	37385.67
451.91	37268.94
452.12	37004.75
452.32	36595.15
452.53	36249.05
452.73	36312.53
452.94	36070.87
453.15	36027.87
453.35	35726.81
453.56	35458.53
453.76	35694.05
453.97	34887.15
454.17	35149.29
454.38	35059.18
454.59	35096.04
454.79	34221.56
455.00	34684.40
455.20	34635.25
455.41	34381.30
455.61	34029.05
455.82	34170.36
456.02	34000.38
456.23	33732.09
456.44	33166.85
456.64	33170.95
456.85	33003.02
457.05	33213.96
457.26	33213.96
457.46	33099.27
457.67	32816.65
457.87	33089.03
458.08	32536.08
458.28	32259.60
458.49	31802.91
458.69	32212.50
458.90	31608.35
459.11	31315.49
459.31	31716.89
459.52	31335.97
459.72	30518.83
459.93	31471.14
460.13	31094.31
460.34	31075.88
460.54	31131.17
460.75	30230.07
460.95	30709.29
461.16	30019.13
461.36	30295.60
461.57	30139.96
461.77	30289.46
461.98	29859.38
462.18	30115.38
462.39	29644.35
462.59	29890.10
462.80	29783.61
463.00	29609.53
463.21	29382.21
463.41	29439.55
463.62	29351.49
463.82	29228.61
464.03	29371.97
464.23	29091.40
464.44	28673.61
464.64	29099.59
464.85	28577.36
465.05	28849.74
465.26	29021.77
465.46	28030.55
465.67	28530.25
465.87	28630.60
466.08	28057.17
466.28	28800.58
466.49	28835.40
466.69	27780.70
466.90	27702.87
467.10	28012.12
467.31	27559.52
467.51	28085.84
467.72	27866.71
467.92	27727.45
468.13	27965.01
468.33	27631.19
468.54	27229.79
468.74	27647.58
468.95	27543.13
469.15	27440.73
469.35	27299.42
469.56	27287.14
469.76	27201.12
469.97	27299.42
470.17	27688.54
470.38	27311.71
470.58	27086.43
470.79	27285.09
470.99	27580.00
471.20	27147.87
471.40	27463.26
471.61	27242.08
471.81	26650.22
472.01	26996.32
472.22	27012.71
472.42	26781.29
472.63	26900.07
472.83	26959.46
473.04	26498.67
473.24	26926.69
473.45	27170.40
473.65	26590.83
473.85	27151.97
474.06	26613.35
474.26	26857.06
474.47	26902.12
474.67	26572.39
474.88	26711.66
475.08	26875.49
475.28	27111.01
475.49	26979.94
475.69	26402.41
475.90	26699.37
476.10	26635.88
476.31	27108.96
476.51	26701.42
476.71	27170.40
476.92	26586.73
477.12	26734.18
477.33	26662.51
477.53	26680.94
477.73	26779.24
477.94	26332.78
478.14	26351.21
478.35	26312.30
478.55	26697.32
478.76	26412.65
478.96	26295.92
479.16	26498.67
479.37	26459.76
479.57	26277.49
479.78	26592.87
479.98	25947.76
480.18	26596.97
480.39	26068.59
480.59	26003.06
480.80	26328.69
481.00	26050.16
481.20	25718.39
481.41	26062.45
481.61	26142.32
481.81	25818.74
482.02	25615.99
482.22	25917.04
482.43	25845.37
482.63	25564.79
482.83	25353.85
483.04	26011.25
483.24	25294.46
483.45	25564.79
483.65	25482.88
483.85	24954.50
484.06	25308.80
484.26	25194.11
484.46	25368.19
484.67	24968.84
484.87	24727.17
485.07	24891.01
485.28	24876.68
485.48	24643.21
485.69	24415.88
485.89	24340.11
486.09	24159.89
486.30	24155.79
486.50	24290.96
486.70	24075.92
486.91	24250.00
487.11	23793.30
487.31	23967.38
487.52	23738.01
487.72	24026.77
487.92	23271.07
488.13	23916.18
488.33	23568.02
488.54	23234.21
488.74	23144.09
488.94	23602.84
489.15	22789.80
489.35	23248.54
489.55	22769.32
489.76	22560.42
489.96	23101.09
490.16	22353.58
490.37	22396.59
490.57	22308.52
490.77	21937.84
490.98	22050.48
491.18	21821.11
491.38	22290.09
491.59	21763.76
491.79	22165.17
491.99	21642.93
492.19	21522.10
492.40	21550.78
492.60	21337.79
492.80	21089.98
493.01	20776.64
493.21	21401.27
493.41	20811.46
493.62	20903.62
493.82	20537.03
494.02	20555.46
494.23	20600.52
494.43	20289.23
494.63	20506.31
494.84	20537.03
495.04	20078.29
495.24	19783.38
495.44	19896.02
495.65	19601.11
495.85	19531.48
496.05	19683.03
496.26	19535.57
496.46	19822.29
496.66	19117.79
496.86	18798.31
497.07	19187.42
497.27	19011.29
497.47	19085.02
497.68	18333.42
497.88	19472.09
498.08	18319.08
498.28	18673.38
498.49	18142.96
498.69	18163.43
498.89	18140.91
499.10	18269.93
499.30	17790.70
499.50	17893.10
499.70	17784.56
499.91	17729.27
500.11	17897.20
500.31	17671.92
500.51	17460.98
500.72	17348.34
500.92	17280.76
501.12	17190.65
501.33	17219.32
501.53	16645.89
501.73	16871.17
501.93	16928.51
502.14	16942.85
502.34	16994.04
502.54	16598.79
502.74	16336.65
502.95	16164.62
503.15	16054.03
503.35	15990.54
503.55	16170.76
503.76	15800.08
503.96	15843.09
504.16	15714.06
504.36	15841.04
504.57	15335.19
504.77	15126.30
504.97	15712.02
505.17	15431.44
505.37	15130.39
505.58	15005.47
505.78	15009.56
505.98	15161.11
506.18	14878.49
506.39	14485.28
506.59	15126.30
506.79	14772.00
506.99	14749.47
507.20	14479.14
507.40	14413.60
507.60	14399.27
507.80	14417.70
508.00	14253.86
508.21	14352.16
508.41	14065.45
508.61	13807.41
508.81	13786.93
509.01	13809.45
509.22	14145.32
509.42	13551.41
509.62	13748.01
509.82	13561.65
510.02	13950.76
510.23	13524.79
510.43	13375.28
510.63	13752.11
510.83	13276.98
511.03	13395.76
511.24	13279.03
511.44	13508.40
511.64	13637.42
511.84	13135.67
512.04	13375.28
512.25	12984.12
512.45	12934.97
512.65	12889.92
512.85	12701.50
513.05	12934.97
513.26	12584.77
513.46	12511.04
513.66	12386.12
513.86	12199.75
514.06	12635.97
514.26	12681.02
514.47	11982.67
514.67	12476.23
514.87	12103.50
515.07	12017.48
515.27	11726.67
515.47	12326.72
515.68	11824.97
515.88	11951.95
516.08	11798.35
516.28	11595.60
516.48	11949.90
516.68	11517.78
516.89	11493.20
517.09	11437.91
517.29	11274.07
517.49	11153.24
517.69	11577.17
517.89	11644.75
518.09	11177.81
518.30	11149.14
518.50	11059.03
518.70	10882.91
518.90	10796.89
519.10	11743.05
519.30	10669.92
519.50	10831.71
519.71	10805.08
519.91	10583.90
520.11	10608.48
520.31	10741.60
520.51	11331.41
520.71	10241.89
520.91	10481.50
521.12	10456.93
521.32	10616.67
521.52	10344.29
521.72	10131.30
521.92	10039.14
522.12	10278.76
522.32	10078.05
522.52	10053.48
522.73	9895.78
522.93	9994.09
523.13	10028.90
523.33	9834.35
523.53	9856.87
523.73	9662.32
523.93	9846.63
524.13	9670.51
524.33	10112.87
524.54	9619.31
524.74	9375.60
524.94	9328.50
525.14	9457.52
525.34	9734.00
525.54	9156.47
525.74	9021.30
525.94	9279.35
526.14	9099.13
526.34	9195.38
526.55	8996.73
526.75	9170.80
526.95	8900.47
527.15	8888.18
527.35	8640.38
527.55	8744.83
527.75	8578.94
527.95	8654.72
528.15	8605.56
528.35	8511.36
528.55	8578.94
528.75	8220.55
528.96	8380.29
529.16	8159.11
529.36	8466.30
529.56	8105.86
529.76	8097.67
529.96	8400.77
530.16	8386.43
530.36	7952.26
530.56	8087.43
530.76	8167.30
530.96	7661.45
531.16	8171.40
531.36	7763.85
531.56	8368.00
531.76	7905.16
531.96	7919.50
532.17	7466.89
532.37	7540.62
532.57	7636.88
532.77	7374.74
532.97	7387.02
533.17	7745.42
533.37	7497.61
533.57	7479.18
533.77	7532.43
533.97	7712.65
534.17	7430.03
534.37	7282.58
534.57	7245.71
534.77	7327.63
534.97	6938.52
535.17	7059.35
535.37	7131.03
535.57	7038.87
535.77	7192.47
535.97	6737.82
536.17	7040.92
536.37	6918.04
536.57	7196.56
536.77	6778.78
536.97	6528.92
537.17	6789.02
537.37	6477.73
537.57	6328.22
537.77	6764.44
537.97	6522.78
538.18	6686.62
538.38	6410.14
538.58	6946.71
538.78	6465.44
538.98	6737.82
539.18	6369.18
539.38	6277.02
539.58	6315.94
539.78	6565.79
539.98	6301.60
540.18	6367.13
540.38	6369.18
540.58	6608.80
540.78	6148.00
540.98	6090.66
541.18	6027.17
541.38	6322.08
541.58	6184.87
541.77	6186.91
541.97	6274.98
542.17	6369.18
542.37	5920.68
542.57	5867.43
542.77	5873.57
542.97	6356.90
543.17	5840.81
543.37	6117.28
543.57	5736.36
543.77	6205.35
543.97	5826.47
544.17	5679.02
544.37	5558.19
544.57	5975.97
544.77	5791.66
544.97	5631.91
545.17	5740.46
545.37	5818.28
545.57	5439.40
545.77	5871.53
545.97	5693.35
546.17	6113.19
546.37	5502.89
546.57	5283.76
546.77	5607.34
546.97	5529.52
547.17	5177.26
547.37	5355.44
547.57	5359.53
547.76	5480.36
547.96	5255.09
548.16	5222.32
548.36	5191.60
548.56	5111.73
548.76	5054.39
548.96	5117.87
549.16	5150.64
549.36	5375.92
549.56	4970.42
549.76	5568.43
549.96	5040.05
550.16	5007.28
550.36	5068.72
550.56	5025.72
550.75	5035.96
550.95	5162.93
551.15	4863.93
551.35	4620.22
551.55	4896.69
551.75	5052.34
551.95	4816.82
552.15	4360.13
552.35	4999.09
552.55	4847.54
552.75	4712.38
552.95	4497.34
553.14	4652.98
553.34	5074.87
553.54	4677.56
553.74	4513.72
553.94	4571.07
554.14	4593.59
554.34	4673.46
554.54	4591.55
554.74	4755.38
554.94	4736.95
555.13	4620.22
555.33	4116.42
555.53	4403.13
555.73	4646.84
555.93	4282.30
556.13	4718.52
556.33	4661.18
556.53	4825.01
556.73	4366.27
556.92	4599.74
557.12	4546.49
557.32	4368.32
557.52	4097.99
557.72	4417.47
557.92	4519.87
558.12	4437.95
558.32	4429.76
558.51	4491.20
558.71	4173.76
558.91	4542.39
559.11	4308.93
559.31	4249.54
559.51	4147.14
559.71	4292.54
559.91	4040.64
560.10	3954.63
560.30	4501.44
560.50	4120.51
560.70	4009.92
560.90	4130.75
561.10	4016.07
561.29	4417.47
561.49	3825.61
561.69	3919.81
561.89	4065.22
562.09	4048.83
562.29	4198.34
562.49	3692.49
562.68	3977.16
562.88	4329.41
563.08	4067.27
563.28	3715.02
563.48	3981.25
563.68	4261.82
563.87	3989.44
564.07	3768.26
564.27	3856.33
564.47	3997.64
564.67	3626.95
564.87	3651.53
565.06	3835.85
565.26	3899.33
565.46	3821.51
565.66	3618.76
565.86	4229.06
566.05	3645.38
566.25	3565.51
566.45	3739.59
566.65	3755.97
566.85	3831.75
567.05	3477.45
567.24	3549.13
567.44	3493.83
567.64	3975.11
567.84	3454.92
568.04	3350.48
568.23	3690.44
568.43	4042.69
568.63	3149.78
568.83	3569.61
569.03	3762.12
569.22	3778.50
569.42	3561.42
569.62	3534.79
569.82	3846.09
570.02	3712.97
570.21	3432.40
570.41	3432.40
570.61	3440.59
570.81	3686.34
571.00	3379.15
571.20	3323.85
571.40	3792.84
571.60	3598.28
571.80	3360.72
571.99	3354.57
572.19	3647.43
572.39	3667.91
572.59	3237.84
572.78	3303.37
572.98	3422.16
573.18	3559.37
573.38	3278.80
573.57	3540.94
573.77	3592.14
573.97	3553.23
574.17	3241.93
574.36	3291.09
574.56	3373.00
574.76	3239.89
574.96	3307.47
575.15	3575.75
575.35	3370.96
575.55	3502.03
575.75	3481.55
575.94	3420.11
576.14	3407.82
576.34	3510.22
576.54	3215.31
576.73	3317.71
576.93	3332.05
577.13	3256.27
577.33	3467.21
577.52	3082.19
577.72	3125.20
577.92	3227.60
578.12	3141.58
578.31	3534.79
578.51	3790.79
578.71	3516.36
578.90	3026.90
579.10	3459.02
579.30	3510.22
579.50	3270.61
579.69	2942.93
579.89	3172.30
580.09	3432.40
580.29	3307.47
580.48	3145.68
580.68	3037.14
580.88	3391.44
581.07	3063.76
581.27	3196.88
581.47	3131.34
581.66	3291.09
581.86	3692.49
582.06	3012.56
582.26	3149.78
582.45	3071.95
582.65	3637.19
582.85	3016.66
583.04	2832.34
583.24	3264.46
583.44	3012.56
583.63	3045.33
583.83	2932.69
584.03	3182.54
584.22	3473.36
584.42	2940.88
584.62	3088.34
584.82	3176.40
585.01	3317.71
585.21	3035.09
585.41	2953.17
585.60	3145.68
585.80	3094.48
586.00	2969.55
586.19	2785.24
586.39	2779.09
586.59	3209.17
586.78	2959.31
586.98	2875.35
587.18	3049.43
587.37	3424.20
587.57	2861.01
587.77	3223.50
587.96	2983.89
588.16	3215.31
588.36	2840.53
588.55	2815.96
588.75	3340.24
588.94	3067.86
589.14	2729.94
589.34	2971.60
589.53	3268.56
589.73	2930.64
589.93	2801.62
590.12	2697.17
590.32	3051.47
590.52	3198.93
590.71	2949.08
590.91	2740.18
591.11	2951.12
591.30	3067.86
591.50	2772.95
591.69	2598.87
591.89	3168.21
592.09	3172.30
592.28	2781.14
592.48	2858.96
592.68	3092.43
592.87	2977.75
593.07	2807.77
593.26	2822.10
593.46	2785.24
593.66	3270.61
593.85	2715.61
594.05	2928.60
594.24	2981.84
594.44	2922.45
594.64	2969.55
594.83	2508.76
595.03	3416.01
595.23	2889.68
595.42	2715.61
595.62	2938.84
595.81	3061.71
596.01	2777.05
596.20	2686.94
596.40	2699.22
596.60	2830.29
596.79	3325.90
596.99	2543.58
597.18	2580.44
597.38	3004.37
597.58	2887.64
597.77	2478.04
597.97	2445.27
598.16	2994.13
598.36	3198.93
598.56	2441.18
598.75	3006.42
598.95	3057.62
599.14	3106.77
599.34	2731.99
599.53	2725.85
599.73	2963.41
599.93	3084.24
600.12	2768.85
600.32	2770.90
600.51	2973.65
600.71	2703.32
600.90	2725.85
601.10	2783.19
601.29	3125.20
601.49	3071.95
601.69	2615.26
601.88	2768.85
602.08	2981.84
602.27	2899.92
602.47	2490.33
602.66	2574.30
602.86	3012.56
603.05	3125.20
603.25	2564.06
603.45	2777.05
603.64	3004.37
603.84	2846.68
604.03	2453.47
604.23	2764.76
604.42	2930.64
604.62	2832.34
604.81	2605.02
605.01	2932.69
605.20	3078.10
605.40	2863.06
605.59	2424.80
605.79	2701.27
605.98	2781.14
606.18	2963.41
606.37	2938.84
606.57	2736.09
606.77	2777.05
606.96	2748.37
607.16	2351.07
607.35	2549.72
607.55	2807.77
607.74	2848.72
607.94	2693.08
608.13	2527.19
608.33	2885.59
608.52	2674.65
608.72	2480.09
608.91	2637.78
609.11	2703.32
609.30	2893.78
609.50	2699.22
609.69	2432.99
609.89	2977.75
610.08	3065.81
610.28	2437.08
610.47	2584.54
610.67	2738.13
610.86	2926.55
611.06	2891.73
611.25	2684.89
611.44	2944.98
611.64	2949.08
611.83	2854.87
612.03	2699.22
612.22	2731.99
612.42	2875.35
612.61	2490.33
612.81	2537.43
613.00	2772.95
613.20	2813.91
613.39	2512.86
613.59	2738.13
613.78	2662.36
613.98	3110.86
614.17	2641.88
614.37	2729.94
614.56	2707.41
614.75	2775.00
614.95	2500.57
615.14	2576.34
615.34	2502.62
615.53	3125.20
615.73	2889.68
615.92	2549.72
616.12	2592.73
616.31	2707.41
616.50	2736.09
616.70	2508.76
616.89	2766.81
617.09	2973.65
617.28	2652.12
617.48	2783.19
617.67	2709.46
617.87	2844.63
618.06	2488.28
618.25	2297.82
618.45	2715.61
618.64	3121.10
618.84	2742.23
619.03	2820.05
619.23	2781.14
619.42	2543.58
619.61	2678.74
619.81	2693.08
620.00	2750.42
620.20	2762.71
620.39	2731.99
620.58	2592.73
620.78	2506.71
620.97	2729.94
621.17	2365.40
621.36	2232.29
621.55	2891.73
621.75	2768.85
621.94	2588.63
622.14	2344.92
622.33	2443.23
622.52	2711.51
622.72	2222.05
622.91	2596.82
623.11	2815.96
623.30	2697.17
623.49	2676.70
623.69	2510.81
623.88	2590.68
624.08	2942.93
624.27	2668.50
624.46	2453.47
624.66	2521.05
624.85	2920.40
625.05	2428.89
625.24	2535.39
625.43	2625.50
625.63	2543.58
625.82	2412.51
626.01	2215.90
626.21	2719.70
626.40	2818.00
626.59	2473.95
626.79	2635.74
626.98	2621.40
627.18	2519.00
627.37	2596.82
627.56	2465.75
627.76	2586.58
627.95	2711.51
628.14	2234.33
628.34	2508.76
628.53	2693.08
628.72	2547.67
628.92	2353.12
629.11	2686.94
629.30	2547.67
629.50	2400.22
629.69	2602.97
629.88	2541.53
630.08	2758.61
630.27	2463.71
630.46	2377.69
630.66	2482.14
630.85	2531.29
631.04	2668.50
631.24	2641.88
631.43	2426.84
631.62	2600.92
631.82	2785.24
632.01	2375.64
632.20	2394.08
632.40	3319.76
632.59	2795.48
632.78	2389.98
632.98	2297.82
633.17	2639.83
633.36	2863.06
633.56	2324.44
633.75	2281.44
633.94	2508.76
634.14	3004.37
634.33	2353.12
634.52	2576.34
634.71	2637.78
634.91	2826.20
635.10	2519.00
635.29	2439.13
635.49	2723.80
635.68	2461.66
635.87	2363.36
636.07	2248.67
636.26	2633.69
636.45	2852.82
636.64	2506.71
636.84	2516.95
637.03	2760.66
637.22	2654.17
637.42	2471.90
637.61	2416.60
637.80	2752.47
637.99	2641.88
638.19	2377.69
638.38	2521.05
638.57	2650.07
638.76	2600.92
638.96	2435.03
639.15	2727.89
639.34	2566.10
639.54	2371.55
639.73	2379.74
639.92	2267.10
640.11	2248.67
640.31	2688.98
640.50	2404.32
640.69	2592.73
640.88	2627.54
641.08	2674.65
641.27	2355.16
641.46	2428.89
641.65	2301.92
641.85	2500.57
642.04	2672.60
642.23	2275.29
642.42	2555.86
642.62	2537.43
642.81	2301.92
643.00	2602.97
643.19	2551.77
643.38	2428.89
643.58	2154.46
643.77	2293.72
643.96	2527.19
644.15	2701.27
644.35	2289.63
644.54	2191.33
644.73	2654.17
644.92	2529.24
645.12	2609.11
645.31	2154.46
645.50	2488.28
645.69	2498.52
645.88	2228.19
646.08	2336.73
646.27	2314.20
646.46	2332.64
646.65	2482.14
646.84	2170.85
647.04	2695.13
647.23	2428.89
647.42	2484.19
647.61	2557.91
647.80	2605.02
648.00	2617.30
648.19	2285.53
648.38	2349.02
648.57	2490.33
648.76	2527.19
648.96	2510.81
649.15	2510.81
649.34	2373.60
649.53	2570.20
649.72	2236.38
649.92	2492.38
650.11	2353.12
650.30	2465.75
650.49	2099.17
650.68	2252.77
650.87	2428.89
651.07	2213.85
651.26	2344.92
651.45	2346.97
651.64	2322.40
651.83	2453.47
652.02	2271.20
652.22	2289.63
652.41	2338.78
652.60	2502.62
652.79	2170.85
652.98	2287.58
653.17	2490.33
653.37	2461.66
653.56	2404.32
653.75	2381.79
653.94	2445.27
654.13	2607.06
654.32	2283.49
654.51	2289.63
654.71	2416.60
654.90	2535.39
655.09	2082.78
655.28	2410.46
655.47	2719.70
655.66	2695.13
655.85	2281.44
656.05	2385.88
656.24	2674.65
656.43	2617.30
656.62	2330.59
656.81	2482.14
657.00	2455.51
657.19	2299.87
657.38	2211.81
657.58	2590.68
657.77	2400.22
657.96	2383.84
658.15	2346.97
658.34	2445.27
658.53	2443.23
658.72	2426.84
658.91	2273.25
659.10	2592.73
659.30	2512.86
659.49	2566.10
659.68	2465.75
659.87	2363.36
660.06	2471.90
660.25	2451.42
660.44	2484.19
660.63	2166.75
660.82	2637.78
661.01	2562.01
661.21	2220.00
661.40	2326.49
661.59	2334.68
661.78	2312.16
661.97	2238.43
662.16	2379.74
662.35	2342.88
662.54	2447.32
662.73	2482.14
662.92	2445.27
663.11	2674.65
663.30	2568.15
663.50	2195.42
663.69	2238.43
663.88	2463.71
664.07	2424.80
664.26	2256.86
664.45	2539.48
664.64	2447.32
664.83	2191.33
665.02	2170.85
665.21	2519.00
665.40	2394.08
665.59	2578.39
665.78	2502.62
665.97	2400.22
666.16	2377.69
666.35	2375.64
666.54	2271.20
666.73	2574.30
666.93	2285.53
667.12	2465.75
667.31	2537.43
667.50	2385.88
667.69	2310.11
667.88	2314.20
668.07	2324.44
668.26	2117.60
668.45	2633.69
668.64	2424.80
668.83	2220.00
669.02	2254.81
669.21	2162.66
669.40	2480.09
669.59	2373.60
669.78	2320.35
669.97	2441.18
670.16	2410.46
670.35	2369.50
670.54	2279.39
670.73	2455.51
670.92	2250.72
671.11	2349.02
671.30	2510.81
671.49	2723.80
671.68	2406.36
671.87	2289.63
672.06	2308.06
672.25	2576.34
672.44	2621.40
672.63	2062.30
672.82	2379.74
673.01	2344.92
673.20	2607.06
673.39	2279.39
673.58	2193.37
673.77	2260.96
673.96	2332.64
674.15	2301.92
674.34	2293.72
674.53	2592.73
674.72	2514.91
674.91	2523.10
675.10	2414.56
675.29	2412.51
675.48	2148.32
675.67	2162.66
675.86	2432.99
676.05	2310.11
676.24	2369.50
676.43	2453.47
676.62	2426.84
676.81	2529.24
677.00	2617.30
677.19	2109.41
677.38	2174.94
677.57	2568.15
677.75	2623.45
677.94	2326.49
678.13	2142.18
678.32	2365.40
678.51	2717.65
678.70	2162.66
678.89	2367.45
679.08	2211.81
679.27	2383.84
679.46	2211.81
679.65	2478.04
679.84	2230.24
680.03	2404.32
680.22	2389.98
680.41	2340.83
680.60	2635.74
680.79	2674.65
680.97	2191.33
681.16	2203.61
681.35	2523.10
681.54	2451.42
681.73	2174.94
681.92	2351.07
682.11	2414.56
682.30	2484.19
682.49	2201.57
682.68	2174.94
682.87	2287.58
683.06	2349.02
683.25	2408.41
683.43	2176.99
683.62	2553.82
683.81	2473.95
684.00	2310.11
684.19	2312.16
684.38	2375.64
684.57	2516.95
684.76	2236.38
684.95	2273.25
685.14	2650.07
685.32	2414.56
685.51	2115.55
685.70	2475.99
685.89	2342.88
686.08	2379.74
686.27	2074.59
686.46	2185.18
686.65	2346.97
686.83	2394.08
687.02	2297.82
687.21	2269.15
687.40	2525.15
687.59	2291.68
687.78	2435.03
687.97	2088.93
688.16	2629.59
688.34	2475.99
688.53	2217.95
688.72	2336.73
688.91	2525.15
689.10	2541.53
689.29	2258.91
689.48	2158.56
689.66	2457.56
689.85	2680.79
690.04	2295.77
690.23	2500.57
690.42	2455.51
690.61	2502.62
690.80	2373.60
690.98	2187.23
691.17	2549.72
691.36	2828.24
691.55	2207.71
691.74	2230.24
691.93	2277.34
692.11	2222.05
692.30	2252.77
692.49	2656.22
692.68	2631.64
692.87	2408.41
693.06	2113.50
693.24	2424.80
693.43	2369.50
693.62	2332.64
693.81	2224.09
694.00	2230.24
694.19	2373.60
694.37	2396.12
694.56	1976.29
694.75	2369.50
694.94	2293.72
695.13	2172.89
695.31	2072.54
695.50	2144.22
695.69	2711.51
695.88	2555.86
696.07	2600.92
696.25	2443.23
696.44	2389.98
696.63	2781.14
696.82	2289.63
697.01	2142.18
697.19	2371.55
697.38	2463.71
697.57	2256.86
697.76	2334.68
697.95	2531.29
698.13	2361.31
698.32	2170.85
698.51	2238.43
698.70	2701.27
698.88	2285.53
699.07	2101.22
699.26	2236.38
699.45	2443.23
699.64	2551.77
699.82	2148.32
700.01	2400.22
700.20	2246.62
700.39	2590.68
700.57	2293.72
700.76	2375.64
700.95	2291.68
701.14	2654.17
701.32	2164.70
701.51	2248.67
701.70	2357.21
701.89	2236.38
702.07	2301.92
702.26	2344.92
702.45	2430.94
702.64	2521.05
702.82	2195.42
703.01	2293.72
703.20	2383.84
703.39	2473.95
703.57	2363.36
703.76	2648.02
703.95	2412.51
704.14	2176.99
704.32	2166.75
704.51	2361.31
704.70	2400.22
704.89	2281.44
705.07	2281.44
705.26	2426.84
705.45	2197.47
705.63	2330.59
705.82	2232.29
706.01	2267.10
706.20	2344.92
706.38	2357.21
706.57	2156.51
706.76	2093.02
706.94	2236.38
707.13	2443.23
707.32	2502.62
707.51	2090.98
707.69	2357.21
707.88	2648.02
708.07	2236.38
708.25	2148.32
708.44	2285.53
708.63	2211.81
708.81	2187.23
709.00	2453.47
709.19	2443.23
709.37	2250.72
709.56	2220.00
709.75	2367.45
709.94	2346.97
710.12	2322.40
710.31	2273.25
710.50	2361.31
710.68	2492.38
710.87	2619.35
711.06	2279.39
711.24	2361.31
711.43	2275.29
711.62	2680.79
711.80	2133.98
711.99	2594.78
712.18	2174.94
712.36	2437.08
712.55	2355.16
712.74	2299.87
712.92	2314.20
713.11	2516.95
713.30	2109.41
713.48	2369.50
713.67	2342.88
713.85	2412.51
714.04	2228.19
714.23	2752.47
714.41	2101.22
714.60	2443.23
714.79	2232.29
714.97	2596.82
715.16	2357.21
715.35	2527.19
715.53	2047.97
715.72	2310.11
715.91	2297.82
716.09	2404.32
716.28	2314.20
716.46	2342.88
716.65	2582.49
716.84	2615.26
717.02	2168.80
717.21	2220.00
717.40	2248.67
717.58	2260.96
717.77	2277.34
717.95	2351.07
718.14	2535.39
718.33	2439.13
718.51	2281.44
718.70	2211.81
718.88	2357.21
719.07	2314.20
719.26	2082.78
719.44	2373.60
719.63	2240.48
719.81	2314.20
720.00	2279.39
720.19	2187.23
720.37	2291.68
720.56	2551.77
720.74	2224.09
720.93	2344.92
721.12	2277.34
721.30	2377.69
721.49	2166.75
721.67	2303.96
721.86	2404.32
722.04	2598.87
722.23	2232.29
722.42	2297.82
722.60	2297.82
722.79	2482.14
722.97	2322.40
723.16	2195.42
723.34	2279.39
723.53	2414.56
723.72	2541.53
723.90	2351.07
724.09	2332.64
724.27	2586.58
724.46	2277.34
724.64	2277.34
724.83	2432.99
725.01	2451.42
725.20	2164.70
725.39	2285.53
725.57	2633.69
725.76	2441.18
725.94	2203.61
726.13	2080.74
726.31	2183.13
726.50	2336.73
726.68	2338.78
726.87	2404.32
727.05	2416.60
727.24	2418.65
727.42	2414.56
727.61	2273.25
727.80	2164.70
727.98	2621.40
728.17	2103.26
728.35	2316.25
728.54	2392.03
728.72	2402.27
728.91	2238.43
729.09	2154.46
729.28	2555.86
729.46	2473.95
729.65	2220.00
729.83	2252.77
730.02	2623.45
730.20	2467.80
730.39	2731.99
730.57	2279.39
730.76	2252.77
730.94	2670.55
731.13	2301.92
731.31	2170.85
731.50	2138.08
731.68	2293.72
731.87	2217.95
732.05	2365.40
732.24	2455.51
732.42	2404.32
732.61	2174.94
732.79	2387.93
732.98	2592.73
733.16	2514.91
733.35	2121.70
733.53	2129.89
733.71	2256.86
733.90	2439.13
734.08	2306.01
734.27	2273.25
734.45	2338.78
734.64	2297.82
734.82	2281.44
735.01	2187.23
735.19	2314.20
735.38	2496.47
735.56	2596.82
735.75	2527.19
735.93	2332.64
736.11	2478.04
736.30	2351.07
736.48	2162.66
736.67	2496.47
736.85	2402.27
737.04	2127.84
737.22	2588.63
737.41	2357.21
737.59	2150.37
737.77	2369.50
737.96	2129.89
738.14	2478.04
738.33	2519.00
738.51	2215.90
738.70	2418.65
738.88	2158.56
739.06	2478.04
739.25	2371.55
739.43	2260.96
739.62	2420.70
739.80	2435.03
739.99	2326.49
740.17	2267.10
740.35	2514.91
740.54	2279.39
740.72	2170.85
740.91	2338.78
741.09	2299.87
741.27	2576.34
741.46	2336.73
741.64	2285.53
741.83	2625.50
742.01	2547.67
742.19	2215.90
742.38	2220.00
742.56	2482.14
742.75	2535.39
742.93	2404.32
743.11	2549.72
743.30	2426.84
743.48	2283.49
743.67	2285.53
743.85	2301.92
744.03	2275.29
744.22	2484.19
744.40	2367.45
744.58	2377.69
744.77	2496.47
744.95	2539.48
745.14	2072.54
745.32	2213.85
745.50	2320.35
745.69	2471.90
745.87	2043.87
746.05	2357.21
746.24	2443.23
746.42	2230.24
746.61	2346.97
746.79	2424.80
746.97	2594.78
747.16	2523.10
747.34	2519.00
747.52	2510.81
747.71	2508.76
747.89	2342.88
748.07	2146.27
748.26	2064.35
748.44	2590.68
748.62	2326.49
748.81	2324.44
748.99	2412.51
749.17	2379.74
749.36	2494.43
749.54	2269.15
749.72	2207.71
749.91	2181.09
750.09	2482.14
750.27	2289.63
750.46	2211.81
750.64	2506.71
750.82	2232.29
751.01	2183.13
751.19	2387.93
751.37	2471.90
751.56	2510.81
751.74	2095.07
751.92	2285.53
752.10	2445.27
752.29	2181.09
752.47	2318.30
752.65	2293.72
752.84	2295.77
753.02	2224.09
753.20	2418.65
753.39	2301.92
753.57	2334.68
753.75	2723.80
753.93	2475.99
754.12	2123.74
754.30	2289.63
754.48	2535.39
754.67	2256.86
754.85	2281.44
755.03	2461.66
755.21	2758.61
755.40	2383.84
755.58	2256.86
755.76	2461.66
755.95	2371.55
756.13	2133.98
756.31	2265.05
756.49	2426.84
756.68	2338.78
756.86	2236.38
757.04	2435.03
757.22	2637.78
757.41	2478.04
757.59	2498.52
757.77	2402.27
757.95	2719.70
758.14	2379.74
758.32	2369.50
758.50	2379.74
758.68	2564.06
758.87	2703.32
759.05	2398.17
759.23	2576.34
759.41	2295.77
759.60	2559.96
759.78	2512.86
759.96	2256.86
760.14	2488.28
760.33	2320.35
760.51	2271.20
760.69	2324.44
760.87	2412.51
761.05	2389.98
761.24	2217.95
761.42	2459.61
761.60	2543.58
761.78	2508.76
761.97	2170.85
762.15	2566.10
762.33	2707.41
762.51	2445.27
762.69	2545.63
762.88	2471.90
763.06	2779.09
763.24	2488.28
763.42	2557.91
763.60	2373.60
763.79	2250.72
763.97	2439.13
764.15	2193.37
764.33	2402.27
764.51	2449.37
764.70	2682.84
764.88	2494.43
765.06	2336.73
765.24	2301.92
765.42	2572.25
765.61	2324.44
765.79	2443.23
765.97	2389.98
766.15	2449.37
766.33	2312.16
766.51	2334.68
766.70	2471.90
766.88	2695.13
767.06	2326.49
767.24	2449.37
767.42	2275.29
767.60	2363.36
767.79	2281.44
767.97	2346.97
768.15	2394.08
768.33	2510.81
768.51	2361.31
768.69	2789.33
768.88	2469.85
769.06	2615.26
769.24	2357.21
769.42	2602.97
769.60	2387.93
769.78	2355.16
769.96	2164.70
770.15	2824.15
770.33	2408.41
770.51	2729.94
770.69	2461.66
770.87	2342.88
771.05	2490.33
771.23	2469.85
771.41	2303.96
771.60	2220.00
771.78	2414.56
771.96	2430.94
772.14	2197.47
772.32	2535.39
772.50	2426.84
772.68	2412.51
772.86	2355.16
773.05	2465.75
773.23	2668.50
773.41	2484.19
773.59	2406.36
773.77	2344.92
773.95	2510.81
774.13	2590.68
774.31	2263.01
774.49	2559.96
774.68	2269.15
774.86	2807.77
775.04	2553.82
775.22	2379.74
775.40	2215.90
775.58	2316.25
775.76	2314.20
775.94	2414.56
776.12	2463.71
776.30	2570.20
776.48	2357.21
776.66	2506.71
776.85	2502.62
777.03	2684.89
777.21	2330.59
777.39	2467.80
777.57	2818.00
777.75	2369.50
777.93	2342.88
778.11	2582.49
778.29	2514.91
778.47	2377.69
778.65	2742.23
778.83	2699.22
779.01	2691.03
779.19	2752.47
779.37	2586.58
779.55	2664.41
779.74	2299.87
779.92	2676.70
780.10	2527.19
780.28	2623.45
780.46	2543.58
780.64	2686.94
780.82	2455.51
781.00	2631.64
781.18	2537.43
781.36	2641.88
781.54	2306.01
781.72	2664.41
781.90	2367.45
782.08	2351.07
782.26	2400.22
782.44	2504.67
782.62	2680.79
782.80	2777.05
782.98	2361.31
783.16	2357.21
783.34	2453.47
783.52	2705.37
783.70	2582.49
783.88	2215.90
784.06	2598.87
784.24	2609.11
784.42	2422.75
784.60	2263.01
784.78	2568.15
784.96	2375.64
785.14	2519.00
785.32	2363.36
785.50	2363.36
785.68	2795.48
785.86	2422.75
786.04	2316.25
786.22	2566.10
786.40	2508.76
786.58	2328.54
786.76	2195.42
786.94	2586.58
787.12	2232.29
787.30	2504.67
787.48	2324.44
787.66	2504.67
787.84	2500.57
788.02	2654.17
788.20	2258.91
788.38	2457.56
788.56	2838.48
788.74	2498.52
788.92	2353.12
789.10	2627.54
789.28	2869.20
789.46	2289.63
789.64	2830.29
789.82	2324.44
790.00	2519.00
790.17	2246.62
790.35	2582.49
790.53	2582.49
790.71	2656.22
790.89	2781.14
791.07	2389.98
791.25	2742.23
791.43	2498.52
791.61	2338.78
791.79	2412.51
791.97	2445.27
792.15	2541.53
792.33	2617.30
792.51	2273.25
792.69	2381.79
792.86	2617.30
793.04	2441.18
793.22	2457.56
793.40	2543.58
793.58	2473.95
793.76	2205.66
793.94	2961.36
794.12	2605.02
794.30	2514.91
794.48	2437.08
794.66	2588.63
794.84	2580.44
795.01	2498.52
795.19	2359.26
795.37	2578.39
795.55	2650.07
795.73	2844.63
795.91	2359.26
796.09	2277.34
796.27	2564.06
796.45	2400.22
796.62	2353.12
796.80	2463.71
796.98	2414.56
797.16	2541.53
797.34	2308.06
797.52	2445.27
797.70	2588.63
797.88	2617.30
798.06	2539.48
798.23	3209.17
798.41	2523.10
798.59	2404.32
798.77	2258.91
798.95	2519.00
799.13	2387.93
799.31	2668.50
799.48	2469.85
799.66	2469.85
799.84	2437.08
800.02	2551.77
800.20	2471.90
800.38	3182.54
800.56	2480.09
800.73	2602.97
800.91	2373.60
801.09	3008.47
801.27	2494.43
801.45	2480.09
801.63	2365.40
801.80	2605.02
801.98	2545.63
802.16	2355.16
802.34	2432.99
802.52	2576.34
802.70	2652.12
802.87	2459.61
803.05	2523.10
803.23	2545.63
803.41	2688.98
803.59	2660.31
803.77	2385.88
803.94	2432.99
804.12	2406.36
804.30	2502.62
804.48	2531.29
804.66	2187.23
804.83	2967.51
805.01	2279.39
805.19	2414.56
805.37	2220.00
805.55	2621.40
805.72	2543.58
805.90	2244.57
806.08	2471.90
806.26	2457.56
806.44	2711.51
806.61	2559.96
806.79	2336.73
806.97	2346.97
807.15	2525.15
807.32	2500.57
807.50	2389.98
807.68	2412.51
807.86	2576.34
808.04	2346.97
808.21	2512.86
808.39	2641.88
808.57	2576.34
808.75	2424.80
808.92	2293.72
809.10	2494.43
809.28	2582.49
809.46	2602.97
809.63	2383.84
809.81	2459.61
809.99	2729.94
810.17	2385.88
810.35	2471.90
810.52	2408.41
810.70	2531.29
810.88	2465.75
811.05	2688.98
811.23	2605.02
811.41	2858.96
811.59	2322.40
811.76	2316.25
811.94	2566.10
812.12	2555.86
812.30	2482.14
812.47	2551.77
812.65	2394.08
812.83	2838.48
813.01	2471.90
813.18	2314.20
813.36	2576.34
813.54	2693.08
813.71	2265.05
813.89	2461.66
814.07	2664.41
814.25	2541.53
814.42	2242.53
814.60	2383.84
814.78	2547.67
814.95	2906.07
815.13	2332.64
815.31	2457.56
815.49	2480.09
815.66	2674.65
815.84	2363.36
816.02	2340.83
816.19	2588.63
816.37	2418.65
816.55	2363.36
816.72	2574.30
816.90	2453.47
817.08	2426.84
817.25	2662.36
817.43	2273.25
817.61	2594.78
817.78	2502.62
817.96	2461.66
818.14	2320.35
818.32	2357.21
818.49	2564.06
818.67	2277.34
818.85	2695.13
819.02	2592.73
819.20	2598.87
819.38	2463.71
819.55	2420.70
819.73	2709.46
819.90	2801.62
820.08	2240.48
820.26	2420.70
820.43	2803.67
820.61	2533.34
820.79	2435.03
820.96	2121.70
821.14	2355.16
821.32	2453.47
821.49	2242.53
821.67	2211.81
821.85	2451.42
822.02	2275.29
822.20	2410.46
822.37	2295.77
822.55	2564.06
822.73	2793.43
822.90	2414.56
823.08	2428.89
823.26	2424.80
823.43	2602.97
823.61	2328.54
823.78	2363.36
823.96	2531.29
824.14	2838.48
824.31	2486.23
824.49	2375.64
824.67	2648.02
824.84	2639.83
825.02	2404.32
825.19	2267.10
825.37	3012.56
825.55	2461.66
825.72	2713.56
825.90	2830.29
826.07	2521.05
826.25	2830.29
826.43	2168.80
826.60	2465.75
826.78	2562.01
826.95	2613.21
827.13	2230.24
827.30	2627.54
827.48	2482.14
827.66	2543.58
827.83	2473.95
828.01	2420.70
828.18	2369.50
828.36	2496.47
828.53	2119.65
828.71	2236.38
828.89	2547.67
829.06	2576.34
829.24	2215.90
829.41	2263.01
829.59	2428.89
829.76	2482.14
829.94	2328.54
830.11	2392.03
830.29	2357.21
830.47	2625.50
830.64	2406.36
830.82	2582.49
830.99	2416.60
831.17	2451.42
831.34	2658.26
831.52	2432.99
831.69	2475.99
831.87	2625.50
832.04	2516.95
832.22	2308.06
832.40	2367.45
832.57	2600.92
832.75	2213.85
832.92	2181.09
833.10	2574.30
833.27	2758.61
833.45	2457.56
833.62	2326.49
833.80	2619.35
833.97	2582.49
834.15	2703.32
834.32	2443.23
834.50	2353.12
834.67	2871.25
834.85	2371.55
835.02	2473.95
835.20	2607.06
835.37	2885.59
835.55	2465.75
835.72	2613.21
835.90	2338.78
836.07	2740.18
836.25	2502.62
836.42	2582.49
836.60	2473.95
836.77	2602.97
836.95	2568.15
837.12	2514.91
837.30	2549.72
837.47	2363.36
837.65	2217.95
837.82	2306.01
838.00	2455.51
838.17	2428.89
838.34	2260.96
838.52	2398.17
838.69	2744.28
838.87	2691.03
839.04	2519.00
839.22	2248.67
839.39	2519.00
839.57	2562.01
839.74	2426.84
839.92	2316.25
840.09	2432.99
840.26	2748.37
840.44	2392.03
840.61	2549.72
840.79	2289.63
840.96	2361.31
841.14	2478.04
841.31	2318.30
841.49	2389.98
841.66	2641.88
841.83	2430.94
842.01	2631.64
842.18	2547.67
842.36	2629.59
842.53	2381.79
842.71	2707.41
842.88	2301.92
843.05	2498.52
843.23	2365.40
843.40	2346.97
843.58	2674.65
843.75	2627.54
843.92	2334.68
844.10	2281.44
844.27	2439.13
844.45	2678.74
844.62	2326.49
844.80	2562.01
844.97	2340.83
845.14	2574.30
845.32	2226.14
845.49	2095.07
845.66	2465.75
845.84	2437.08
846.01	2449.37
846.19	2486.23
846.36	2785.24
846.53	2856.92
846.71	2344.92
846.88	2346.97
847.06	2426.84
847.23	2467.80
847.40	2271.20
847.58	2572.25
847.75	2609.11
847.92	2934.74
848.10	2351.07
848.27	2523.10
848.45	2473.95
848.62	2734.04
848.79	2095.07
848.97	2457.56
849.14	2480.09
849.31	2439.13
849.49	2490.33
849.66	2236.38
849.83	2381.79
850.01	2734.04
850.18	2406.36
850.35	2447.32
850.53	2686.94
850.70	2699.22
850.87	2457.56
851.05	2351.07
851.22	2629.59
851.39	3020.75
851.57	2236.38
851.74	2281.44
851.91	2301.92
852.09	2449.37
852.26	2371.55
852.43	2230.24
852.61	2500.57
852.78	2406.36
852.95	2596.82
853.13	2228.19
853.30	2750.42
853.47	2684.89
853.65	2613.21
853.82	2328.54
853.99	2580.44
854.16	2738.13
854.34	2312.16
854.51	2183.13
854.68	2408.41
854.86	2576.34
855.03	2338.78
855.20	2166.75
855.38	2557.91
855.55	2576.34
855.72	2021.35
855.89	2009.06
856.07	2734.04
856.24	2527.19
856.41	2084.83
856.59	2420.70
856.76	2551.77
856.93	2688.98
857.10	2168.80
857.28	2252.77
857.45	2426.84
857.62	2615.26
857.79	2203.61
857.97	2037.73
858.14	2551.77
858.31	2553.82
858.48	2084.83
858.66	2267.10
858.83	2734.04
859.00	2572.25
859.17	2320.35
859.35	2346.97
859.52	2592.73
859.69	2467.80
859.86	2291.68
860.04	2189.28
860.21	2432.99
860.38	2764.76
860.55	2131.94
860.73	2363.36
860.90	2207.71
861.07	2834.39
861.24	2340.83
861.42	2176.99
861.59	2426.84
861.76	2586.58
861.93	2050.02
862.10	2176.99
862.28	2717.65
862.45	2549.72
862.62	2156.51
862.79	2340.83
862.96	2516.95
863.14	2725.85
863.31	2142.18
863.48	2535.39
863.65	2465.75
863.83	2678.74
864.00	2494.43
864.17	1943.52
864.34	2731.99
864.51	2549.72
864.68	2101.22
864.86	2529.24
865.03	2475.99
865.20	2699.22
865.37	2260.96
865.54	2297.82
865.72	2619.35
865.89	2504.67
866.06	2232.29
866.23	2543.58
866.40	2652.12
866.57	2830.29
866.75	2473.95
866.92	2142.18
867.09	2500.57
867.26	2590.68
867.43	2414.56
867.60	2088.93
867.78	2600.92
867.95	2740.18
868.12	2367.45
868.29	1970.15
868.46	2711.51
868.63	2789.33
868.81	2363.36
868.98	2123.74
869.15	2758.61
869.32	2826.20
869.49	2267.10
869.66	2308.06
869.83	2609.11
870.00	2625.50
870.18	2162.66
870.35	2295.77
870.52	2482.14
870.69	2830.29
870.86	2414.56
871.03	2265.05
871.20	2539.48
871.37	2547.67
871.55	2277.34
871.72	2164.70
871.89	2494.43
872.06	2633.69
872.23	2404.32
872.40	2252.77
872.57	2754.52
872.74	2512.86
872.91	2101.22
873.09	2189.28
873.26	2799.57
873.43	2404.32
873.60	2250.72
873.77	2279.39
873.94	2736.09
874.11	2547.67
874.28	2244.57
874.45	2191.33
874.62	2619.35
874.79	2701.27
874.97	2271.20
875.14	2215.90
875.31	2590.68
875.48	2580.44
875.65	2080.74
875.82	2475.99
875.99	2459.61
876.16	2693.08
876.33	2181.09
876.50	2541.53
876.67	3043.28
876.84	2566.10
877.01	2263.01
877.18	2533.34
877.35	2594.78
877.53	2562.01
877.70	2310.11
877.87	2185.18
878.04	2523.10
878.21	2723.80
878.38	2234.33
878.55	2346.97
878.72	2609.11
878.89	2867.16
879.06	2355.16
879.23	2377.69
879.40	2578.39
879.57	2754.52
879.74	2209.76
879.91	2404.32
880.08	2539.48
880.25	2670.55
880.42	2156.51
880.59	2183.13
880.76	2582.49
880.93	2756.57
881.10	2211.81
881.27	2279.39
881.44	2435.03
881.61	2910.16
881.78	2099.17
881.95	2445.27
882.12	2588.63
882.29	2731.99
882.46	2297.82
882.63	2299.87
882.80	2607.06
882.97	2666.46
883.14	2449.37
883.31	2144.22
883.48	2676.70
883.65	2750.42
883.82	2226.14
883.99	2377.69
884.16	3039.19
884.33	2744.28
884.50	2211.81
884.67	2248.67
884.84	2828.24
885.01	2428.89
885.18	2293.72
885.35	2291.68
885.52	2881.49
885.69	2566.10
885.86	2389.98
886.03	2125.79
886.20	2957.27
886.37	2650.07
886.54	2416.60
886.71	2056.16
886.87	3053.52
887.04	2703.32
887.21	2346.97
887.38	2043.87
887.55	2340.83
887.72	2496.47
887.89	2455.51
888.06	2082.78
888.23	2584.54
888.40	2916.31
888.57	2269.15
888.74	2213.85
888.91	2531.29
889.08	2473.95
889.25	2377.69
889.42	2185.18
889.58	2750.42
889.75	2863.06
889.92	2154.46
890.09	2478.04
890.26	3790.79
890.43	2486.23
890.60	2422.75
890.77	2170.85
890.94	2533.34
891.11	2426.84
891.28	2084.83
891.44	2291.68
891.61	2674.65
891.78	2412.51
891.95	2306.01
892.12	2387.93
892.29	2422.75
892.46	2877.40
892.63	2289.63
892.80	2207.71
892.96	2656.22
893.13	2617.30
893.30	2475.99
893.47	2379.74
893.64	2873.30
893.81	2383.84
893.98	2037.73
894.15	2308.06
894.31	2535.39
894.48	2496.47
894.65	2226.14
894.82	2785.24
894.99	2809.81
895.16	2566.10
895.33	2639.83
895.49	2340.83
895.66	2531.29
895.83	2562.01
896.00	1974.24
896.17	2189.28
896.34	2551.77
896.50	2617.30
896.67	2168.80
896.84	2217.95
897.01	2672.60
897.18	2404.32
897.35	2224.09
897.51	2226.14
897.68	2531.29
897.85	2836.44
898.02	2121.70
898.19	2078.69
898.36	2510.81
898.52	2934.74
898.69	2623.45
898.86	2467.80
899.03	2428.89
899.20	2611.16
899.36	2193.37
899.53	2207.71
899.70	2443.23
899.87	2582.49
900.04	2172.89
900.20	2547.67
900.37	2531.29
900.54	2439.13
900.71	2232.29
900.88	2529.24
901.04	2486.23
901.21	2504.67
901.38	2181.09
901.55	2150.37
901.72	2285.53
901.88	2605.02
902.05	2226.14
902.22	2236.38
902.39	2652.12
902.55	2541.53
902.72	2060.26
902.89	2109.41
903.06	2387.93
903.23	2473.95
903.39	2248.67
903.56	2236.38
903.73	2768.85
903.90	2228.19
904.06	2432.99
904.23	2363.36
904.40	2670.55
904.57	2811.86
904.73	2400.22
904.90	2402.27
905.07	2555.86
905.24	2355.16
905.40	2082.78
905.57	2189.28
905.74	2725.85
905.91	2170.85
906.07	2369.50
906.24	2385.88
906.41	2670.55
906.57	2750.42
906.74	2189.28
906.91	2287.58
907.08	2441.18
907.24	2605.02
907.41	2459.61
907.58	2283.49
907.75	2633.69
907.91	2529.24
908.08	2459.61
908.25	2453.47
908.41	2658.26
908.58	2830.29
908.75	2314.20
908.91	2281.44
909.08	2570.20
909.25	2514.91
909.42	2375.64
>>>>>End Processed Spectral Data<<<<<
