SpectraSuite Data File
++++++++++++++++++++++++++++++++++++
Date: Fri Feb 07 19:22:23 EST 2020
User: BHM
Dark Spectrum Present: No
Reference Spectrum Present: No
Number of Sampled Component Spectra: 1
Spectrometers: USB4H07074
Integration Time (usec): 1000000 (USB4H07074)
Spectra Averaged: 1 (USB4H07074)
Boxcar Smoothing: 0 (USB4H07074)
Correct for Electrical Dark: No (USB4H07074)
Strobe/Lamp Enabled: No (USB4H07074)
Correct for Detector Non-linearity: No (USB4H07074)
Correct for Stray Light: No (USB4H07074)
Number of Pixels in Processed Spectrum: 3648
>>>>>Begin Processed Spectral Data<<<<<
194.67	1298.41
194.89	1298.41
195.11	1298.41
195.33	1290.22
195.55	1255.40
195.77	2432.99
195.99	2435.03
196.21	1894.37
196.42	2056.16
196.64	2375.64
196.86	2316.25
197.08	2084.83
197.30	2291.68
197.52	2215.90
197.74	2113.50
197.96	1978.34
198.18	2084.83
198.40	2303.96
198.61	2510.81
198.83	2379.74
199.05	2244.57
199.27	2334.68
199.49	2656.22
199.71	2471.90
199.93	2222.05
200.15	2455.51
200.37	2389.98
200.58	2025.44
200.80	2562.01
201.02	2516.95
201.24	2269.15
201.46	2353.12
201.68	2256.86
201.90	2277.34
202.12	2697.17
202.34	2449.37
202.55	2670.55
202.77	2381.79
202.99	2387.93
203.21	2406.36
203.43	2537.43
203.65	2459.61
203.87	2320.35
204.09	2465.75
204.30	2637.78
204.52	2643.93
204.74	2318.30
204.96	2263.01
205.18	2408.41
205.40	2541.53
205.62	2232.29
205.84	2557.91
206.05	2394.08
206.27	2584.54
206.49	2514.91
206.71	2207.71
206.93	2414.56
207.15	2570.20
207.37	2719.70
207.58	2379.74
207.80	2039.78
208.02	2377.69
208.24	2365.40
208.46	2240.48
208.68	2203.61
208.90	2715.61
209.11	2367.45
209.33	2117.60
209.55	2340.83
209.77	2306.01
209.99	2277.34
210.21	2269.15
210.43	2273.25
210.64	2482.14
210.86	2414.56
211.08	2072.54
211.30	2478.04
211.52	2459.61
211.74	2412.51
211.95	2197.47
212.17	2496.47
212.39	2461.66
212.61	2672.60
212.83	2166.75
213.05	2199.52
213.26	2553.82
213.48	2506.71
213.70	2236.38
213.92	2279.39
214.14	2605.02
214.36	2185.18
214.57	2123.74
214.79	2478.04
215.01	2590.68
215.23	2662.36
215.45	2416.60
215.67	2234.33
215.88	2650.07
216.10	2514.91
216.32	1920.99
216.54	2095.07
216.76	2428.89
216.97	2371.55
217.19	2099.17
217.41	2351.07
217.63	2502.62
217.85	2600.92
218.07	2121.70
218.28	2535.39
218.50	2637.78
218.72	2414.56
218.94	2279.39
219.16	2459.61
219.37	2355.16
219.59	2549.72
219.81	2093.02
220.03	2250.72
220.25	2516.95
220.46	2742.23
220.68	2226.14
220.90	2232.29
221.12	2490.33
221.34	2371.55
221.55	2279.39
221.77	1990.63
221.99	2170.85
222.21	2346.97
222.43	2611.16
222.64	2080.74
222.86	2643.93
223.08	2252.77
223.30	2308.06
223.52	2267.10
223.73	2514.91
223.95	2799.57
224.17	2232.29
224.39	2211.81
224.60	2461.66
224.82	2293.72
225.04	2277.34
225.26	2187.23
225.48	2199.52
225.69	2574.30
225.91	2248.67
226.13	2684.89
226.35	2473.95
226.56	2371.55
226.78	2142.18
227.00	2140.13
227.22	2521.05
227.44	2514.91
227.65	2193.37
227.87	2312.16
228.09	2330.59
228.31	2625.50
228.52	2142.18
228.74	2187.23
228.96	2541.53
229.18	2318.30
229.39	2402.27
229.61	2066.40
229.83	2289.63
230.05	2437.08
230.26	2713.56
230.48	2375.64
230.70	2531.29
230.92	2256.86
231.13	2207.71
231.35	2297.82
231.57	2334.68
231.79	2555.86
232.00	2238.43
232.22	2095.07
232.44	2416.60
232.66	2576.34
232.87	2316.25
233.09	2263.01
233.31	2678.74
233.53	2396.12
233.74	2408.41
233.96	2475.99
234.18	2359.26
234.40	2371.55
234.61	2248.67
234.83	2164.70
235.05	2502.62
235.27	2527.19
235.48	2199.52
235.70	2383.84
235.92	2306.01
236.14	2478.04
236.35	2244.57
236.57	2478.04
236.79	2559.96
237.00	2359.26
237.22	2246.62
237.44	2416.60
237.66	2357.21
237.87	2670.55
238.09	2101.22
238.31	1996.77
238.53	2363.36
238.74	2451.42
238.96	2215.90
239.18	2205.66
239.39	2281.44
239.61	2594.78
239.83	2269.15
240.05	2203.61
240.26	2263.01
240.48	2549.72
240.70	2285.53
240.91	2418.65
241.13	2349.02
241.35	2158.56
241.56	2228.19
241.78	2291.68
242.00	2475.99
242.22	2510.81
242.43	2578.39
242.65	2574.30
242.87	2463.71
243.08	2594.78
243.30	2295.77
243.52	2297.82
243.73	2809.81
243.95	2670.55
244.17	2267.10
244.39	2101.22
244.60	2516.95
244.82	2473.95
245.04	2191.33
245.25	2093.02
245.47	2394.08
245.69	2449.37
245.90	2170.85
246.12	1980.39
246.34	2502.62
246.55	2533.34
246.77	2559.96
246.99	2357.21
247.20	2369.50
247.42	2832.34
247.64	2099.17
247.86	1880.04
248.07	2662.36
248.29	2281.44
248.51	2256.86
248.72	2299.87
248.94	2445.27
249.16	2492.38
249.37	2131.94
249.59	2402.27
249.81	2232.29
250.02	2363.36
250.24	2447.32
250.46	2367.45
250.67	2613.21
250.89	2424.80
251.11	2029.54
251.32	2351.07
251.54	2484.19
251.76	2400.22
251.97	2154.46
252.19	2363.36
252.40	2250.72
252.62	2527.19
252.84	2424.80
253.05	2385.88
253.27	2848.72
253.49	2525.15
253.70	2322.40
253.92	2643.93
254.14	2631.64
254.35	2289.63
254.57	2103.26
254.79	2131.94
255.00	2981.84
255.22	2584.54
255.44	2365.40
255.65	2263.01
255.87	2349.02
256.08	2375.64
256.30	2078.69
256.52	2232.29
256.73	2463.71
256.95	2453.47
257.17	2078.69
257.38	2510.81
257.60	2383.84
257.82	2488.28
258.03	2117.60
258.25	2138.08
258.46	2289.63
258.68	2473.95
258.90	2176.99
259.11	2076.64
259.33	2609.11
259.55	2228.19
259.76	2320.35
259.98	2207.71
260.19	2095.07
260.41	2420.70
260.63	2138.08
260.84	2166.75
261.06	2463.71
261.27	2650.07
261.49	2176.99
261.71	2258.91
261.92	2312.16
262.14	2496.47
262.35	2133.98
262.57	2037.73
262.79	2312.16
263.00	2498.52
263.22	2191.33
263.44	2189.28
263.65	2510.81
263.87	2504.67
264.08	2133.98
264.30	2367.45
264.52	2455.51
264.73	2531.29
264.95	2160.61
265.16	2353.12
265.38	2408.41
265.59	2406.36
265.81	2379.74
266.03	2283.49
266.24	2488.28
266.46	2422.75
266.67	2402.27
266.89	2553.82
267.11	2363.36
267.32	2301.92
267.54	2269.15
267.75	2324.44
267.97	2308.06
268.19	2301.92
268.40	2115.55
268.62	2045.92
268.83	2527.19
269.05	2346.97
269.26	2357.21
269.48	2332.64
269.70	2256.86
269.91	2609.11
270.13	2236.38
270.34	2346.97
270.56	2205.66
270.77	2324.44
270.99	1998.82
271.21	2428.89
271.42	2260.96
271.64	2543.58
271.85	2340.83
272.07	2375.64
272.28	2611.16
272.50	2607.06
272.71	2609.11
272.93	2291.68
273.15	2303.96
273.36	2334.68
273.58	2158.56
273.79	2248.67
274.01	2637.78
274.22	2691.03
274.44	2072.54
274.65	2277.34
274.87	2185.18
275.09	2377.69
275.30	2097.12
275.52	2193.37
275.73	2357.21
275.95	2527.19
276.16	2619.35
276.38	2320.35
276.59	2598.87
276.81	2699.22
277.02	2260.96
277.24	2078.69
277.45	2672.60
277.67	2559.96
277.89	2222.05
278.10	2359.26
278.32	2330.59
278.53	2289.63
278.75	2142.18
278.96	2443.23
279.18	2293.72
279.39	2396.12
279.61	2215.90
279.82	2459.61
280.04	2340.83
280.25	2340.83
280.47	2203.61
280.68	2080.74
280.90	2336.73
281.11	2277.34
281.33	2140.13
281.54	2045.92
281.76	2361.31
281.97	2181.09
282.19	2258.91
282.40	2392.03
282.62	2318.30
282.83	2635.74
283.05	2154.46
283.27	2355.16
283.48	2254.81
283.70	2449.37
283.91	2420.70
284.13	2138.08
284.34	2248.67
284.56	2516.95
284.77	2281.44
284.99	2314.20
285.20	2308.06
285.42	2539.48
285.63	2326.49
285.84	2334.68
286.06	2398.17
286.27	2240.48
286.49	2226.14
286.70	2240.48
286.92	2301.92
287.13	2289.63
287.35	2181.09
287.56	2295.77
287.78	2662.36
287.99	2236.38
288.21	2156.51
288.42	2801.62
288.64	2584.54
288.85	2578.39
289.07	2394.08
289.28	2256.86
289.50	2312.16
289.71	2385.88
289.93	2217.95
290.14	2002.91
290.36	2586.58
290.57	2254.81
290.79	2457.56
291.00	2355.16
291.22	2437.08
291.43	2922.45
291.64	2314.20
291.86	2244.57
292.07	2631.64
292.29	2637.78
292.50	2330.59
292.72	2164.70
292.93	2783.19
293.15	2658.26
293.36	2414.56
293.58	2420.70
293.79	2430.94
294.00	2686.94
294.22	2234.33
294.43	2285.53
294.65	2826.20
294.86	2535.39
295.08	2426.84
295.29	2926.55
295.51	2697.17
295.72	2811.86
295.94	2306.01
296.15	2031.58
296.36	2480.09
296.58	2459.61
296.79	2387.93
297.01	2349.02
297.22	2496.47
297.44	2510.81
297.65	2424.80
297.86	2598.87
298.08	2588.63
298.29	2756.57
298.51	2482.14
298.72	2369.50
298.94	2353.12
299.15	2695.13
299.36	2449.37
299.58	2209.76
299.79	2709.46
300.01	2508.76
300.22	2365.40
300.44	2150.37
300.65	2508.76
300.86	2314.20
301.08	2377.69
301.29	2326.49
301.51	2811.86
301.72	2942.93
301.93	2437.08
302.15	2330.59
302.36	2707.41
302.58	2596.82
302.79	2471.90
303.01	2279.39
303.22	2531.29
303.43	2680.79
303.65	2349.02
303.86	2447.32
304.08	2592.73
304.29	2596.82
304.50	2586.58
304.72	2271.20
304.93	2527.19
305.15	2942.93
305.36	2248.67
305.57	2461.66
305.79	2326.49
306.00	2617.30
306.22	2447.32
306.43	2447.32
306.64	2559.96
306.86	2891.73
307.07	2576.34
307.28	2402.27
307.50	2576.34
307.71	2826.20
307.93	2254.81
308.14	2455.51
308.35	2658.26
308.57	2680.79
308.78	2543.58
309.00	2375.64
309.21	2586.58
309.42	2594.78
309.64	2371.55
309.85	2205.66
310.06	2486.23
310.28	2684.89
310.49	2465.75
310.71	2099.17
310.92	2637.78
311.13	2510.81
311.35	2314.20
311.56	2639.83
311.77	2635.74
311.99	2605.02
312.20	2420.70
312.41	2596.82
312.63	2615.26
312.84	2600.92
313.06	2344.92
313.27	2582.49
313.48	2482.14
313.70	2549.72
313.91	2502.62
314.12	2287.58
314.34	2717.65
314.55	2619.35
314.76	2619.35
314.98	2437.08
315.19	2609.11
315.40	2709.46
315.62	2373.60
315.83	2637.78
316.04	2815.96
316.26	2756.57
316.47	2588.63
316.68	2545.63
316.90	2381.79
317.11	2684.89
317.32	2656.22
317.54	2435.03
317.75	2594.78
317.96	2519.00
318.18	2322.40
318.39	2488.28
318.60	2584.54
318.82	2299.87
319.03	2326.49
319.24	2349.02
319.46	2709.46
319.67	2713.56
319.88	2234.33
320.10	2367.45
320.31	2473.95
320.52	2494.43
320.74	2240.48
320.95	2179.04
321.16	2340.83
321.38	2723.80
321.59	2320.35
321.80	2121.70
322.02	2492.38
322.23	2977.75
322.44	2435.03
322.65	2238.43
322.87	2510.81
323.08	2469.85
323.29	2588.63
323.51	2600.92
323.72	2703.32
323.93	2664.41
324.15	2377.69
324.36	2535.39
324.57	2611.16
324.78	2607.06
325.00	2572.25
325.21	2441.18
325.42	2469.85
325.64	2592.73
325.85	2412.51
326.06	2236.38
326.28	2435.03
326.49	2453.47
326.70	2461.66
326.91	2510.81
327.13	2650.07
327.34	2658.26
327.55	2557.91
327.77	2195.42
327.98	2586.58
328.19	2541.53
328.40	2410.46
328.62	2160.61
328.83	2625.50
329.04	2428.89
329.25	2273.25
329.47	2289.63
329.68	2471.90
329.89	2553.82
330.11	2314.20
330.32	2297.82
330.53	2480.09
330.74	2676.70
330.96	2420.70
331.17	2211.81
331.38	2803.67
331.59	2568.15
331.81	2320.35
332.02	2426.84
332.23	2494.43
332.44	2629.59
332.66	2607.06
332.87	2105.31
333.08	2621.40
333.29	2758.61
333.51	2744.28
333.72	2226.14
333.93	2443.23
334.14	2832.34
334.36	2533.34
334.57	2379.74
334.78	2572.25
334.99	2750.42
335.21	2459.61
335.42	2465.75
335.63	2652.12
335.84	2664.41
336.06	2435.03
336.27	2322.40
336.48	2367.45
336.69	2756.57
336.91	2371.55
337.12	2504.67
337.33	2619.35
337.54	2359.26
337.75	2731.99
337.97	2228.19
338.18	2658.26
338.39	2535.39
338.60	2236.38
338.82	2613.21
339.03	2471.90
339.24	2422.75
339.45	2357.21
339.66	2340.83
339.88	2809.81
340.09	2369.50
340.30	2359.26
340.51	2516.95
340.73	2592.73
340.94	2869.20
341.15	2387.93
341.36	2455.51
341.57	2574.30
341.79	2607.06
342.00	2381.79
342.21	2246.62
342.42	2142.18
342.63	2578.39
342.85	2555.86
343.06	2303.96
343.27	2334.68
343.48	2486.23
343.69	2285.53
343.91	2514.91
344.12	2631.64
344.33	2402.27
344.54	2697.17
344.75	2162.66
344.97	2375.64
345.18	2363.36
345.39	2432.99
345.60	2351.07
345.81	2439.13
346.02	2443.23
346.24	2637.78
346.45	2504.67
346.66	2406.36
346.87	2453.47
347.08	2095.07
347.30	2211.81
347.51	2432.99
347.72	2398.17
347.93	2287.58
348.14	2490.33
348.35	2428.89
348.57	2312.16
348.78	1976.29
348.99	2334.68
349.20	2254.81
349.41	2826.20
349.62	2877.40
349.84	2551.77
350.05	2416.60
350.26	2432.99
350.47	2338.78
350.68	2406.36
350.89	2547.67
351.11	2465.75
351.32	2432.99
351.53	2406.36
351.74	2478.04
351.95	2795.48
352.16	2496.47
352.37	2293.72
352.59	2400.22
352.80	2617.30
353.01	2267.10
353.22	2504.67
353.43	2580.44
353.64	2541.53
353.86	2306.01
354.07	2508.76
354.28	2295.77
354.49	2459.61
354.70	2406.36
354.91	2299.87
355.12	2523.10
355.33	2656.22
355.55	2285.53
355.76	2377.69
355.97	2611.16
356.18	2615.26
356.39	2396.12
356.60	2301.92
356.81	2537.43
357.03	2527.19
357.24	2355.16
357.45	2721.75
357.66	2465.75
357.87	2731.99
358.08	2416.60
358.29	2428.89
358.50	2488.28
358.71	2734.04
358.93	2596.82
359.14	2322.40
359.35	3299.28
359.56	2553.82
359.77	2699.22
359.98	2533.34
360.19	2848.72
360.40	2987.99
360.61	2977.75
360.83	2918.36
361.04	3020.75
361.25	3252.17
361.46	3200.98
361.67	2947.03
361.88	3268.56
362.09	3184.59
362.30	3434.44
362.51	3764.17
362.72	3885.00
362.94	4466.62
363.15	4558.78
363.36	4562.87
363.57	4620.22
363.78	4491.20
363.99	4800.44
364.20	4319.17
364.41	4548.54
364.62	4591.55
364.83	4474.81
365.04	4177.86
365.26	4177.86
365.47	4206.53
365.68	4130.75
365.89	3993.54
366.10	3923.91
366.31	4448.19
366.52	3581.90
366.73	3870.66
366.94	3678.15
367.15	3305.42
367.36	3254.22
367.57	3051.47
367.78	3030.99
367.99	3006.42
368.21	2711.51
368.42	2869.20
368.63	2965.46
368.84	3022.80
369.05	2901.97
369.26	2656.22
369.47	2871.25
369.68	3033.04
369.89	2605.02
370.10	3135.44
370.31	3362.76
370.52	2969.55
370.73	2555.86
370.94	2863.06
371.15	2934.74
371.36	2830.29
371.57	2707.41
371.78	2920.40
371.99	2836.44
372.20	3360.72
372.42	3065.81
372.63	2867.16
372.84	2789.33
373.05	2992.08
373.26	2883.54
373.47	2953.17
373.68	3006.42
373.89	2920.40
374.10	2656.22
374.31	3235.79
374.52	2981.84
374.73	2908.12
374.94	3030.99
375.15	3252.17
375.36	2992.08
375.57	3069.91
375.78	2985.94
375.99	2983.89
376.20	3164.11
376.41	3297.23
376.62	3446.73
376.83	3545.03
377.04	3373.00
377.25	3850.18
377.46	3686.34
377.67	3907.52
377.88	4255.68
378.09	4769.72
378.30	4138.94
378.51	4573.11
378.72	4581.31
378.93	4982.71
379.14	4624.31
379.35	4661.18
379.56	5099.44
379.77	5414.83
379.98	5160.88
380.19	5287.86
380.40	4999.09
380.61	5230.51
380.82	5162.93
381.03	5152.69
381.24	5189.55
381.45	4925.36
381.66	4847.54
381.87	4761.53
382.08	4784.06
382.29	4583.35
382.50	4540.35
382.71	4652.98
382.92	4403.13
383.13	4495.29
383.34	4038.59
383.55	3737.54
383.76	3948.48
383.97	3981.25
384.18	3897.28
384.39	3954.63
384.60	3735.50
384.81	3708.87
385.02	3633.10
385.23	3495.88
385.44	3499.98
385.65	4009.92
385.86	3653.58
386.07	3426.25
386.28	3387.34
386.49	3141.58
386.70	3301.33
386.91	3317.71
387.11	3432.40
387.32	3282.89
387.53	3223.50
387.74	3379.15
387.95	3344.33
388.16	3370.96
388.37	3588.04
388.58	3479.50
388.79	3440.59
389.00	3413.96
389.21	3299.28
389.42	3231.69
389.63	3002.32
389.84	3592.14
390.05	3309.52
390.26	3164.11
390.47	3155.92
390.68	3346.38
390.89	3112.91
391.09	3483.59
391.30	3350.48
391.51	3717.06
391.72	3241.93
391.93	3461.07
392.14	3366.86
392.35	3221.45
392.56	3651.53
392.77	3309.52
392.98	3360.72
393.19	3424.20
393.40	3585.99
393.61	3286.99
393.82	3602.38
394.02	3551.18
394.23	3413.96
394.44	3334.09
394.65	3526.60
394.86	3547.08
395.07	3567.56
395.28	3370.96
395.49	3366.86
395.70	3733.45
395.91	3848.13
396.12	3612.62
396.32	3928.00
396.53	3674.06
396.74	3829.70
396.95	3948.48
397.16	4515.77
397.37	3854.28
397.58	4288.45
397.79	3954.63
398.00	4155.33
398.21	4210.62
398.41	4341.69
398.62	4255.68
398.83	4321.21
399.04	5199.79
399.25	4681.66
399.46	4530.11
399.67	4466.62
399.88	4771.77
400.09	4706.23
400.29	4837.30
400.50	4863.93
400.71	4550.59
400.92	4833.21
401.13	4761.53
401.34	5177.26
401.55	5105.59
401.76	5115.83
401.96	5109.68
402.17	5367.73
402.38	5402.54
402.59	5570.48
402.80	5517.23
403.01	5801.90
403.22	5959.59
403.43	6256.54
403.63	5846.95
403.84	6334.37
404.05	6571.93
404.26	6502.30
404.47	6604.70
404.68	7184.27
404.89	7333.78
405.09	7225.23
405.30	7382.93
405.51	7661.45
405.72	8370.05
405.93	8447.87
406.14	8232.83
406.35	9426.80
406.55	9400.18
406.76	9637.74
406.97	9973.61
407.18	10256.23
407.39	11087.70
407.60	11306.84
407.80	11417.43
408.01	11927.37
408.22	12472.13
408.43	12472.13
408.64	13119.29
408.85	13799.21
409.05	14241.57
409.26	15060.76
409.47	15435.54
409.68	15804.17
409.89	16611.07
410.10	17055.48
410.30	17692.40
410.51	18173.67
410.72	19263.19
410.93	19654.36
411.14	20262.60
411.35	20844.23
411.55	21257.92
411.76	22408.87
411.97	22744.74
412.18	24366.73
412.39	24600.20
412.59	25384.57
412.80	25841.27
413.01	27207.26
413.22	28102.23
413.43	28755.53
413.63	29308.48
413.84	30055.99
414.05	30969.38
414.26	31938.07
414.47	32652.81
414.67	33750.52
414.88	34553.33
415.09	35165.67
415.30	35847.64
415.51	37131.72
415.71	37625.28
415.92	38618.55
416.13	39210.41
416.34	39796.13
416.55	40086.94
416.75	41309.58
416.96	42102.14
417.17	43079.02
417.38	44209.50
417.59	45018.45
417.79	44991.83
418.00	46300.48
418.21	47473.96
418.42	47168.82
418.62	48641.31
418.83	49173.78
419.04	49636.62
419.25	50529.53
419.46	51422.45
419.66	52051.17
419.87	52640.99
420.08	53163.22
420.29	52917.46
420.49	54588.61
420.70	55028.92
420.91	54709.44
421.12	55678.13
421.32	56286.37
421.53	56857.76
421.74	57705.62
421.95	57349.27
422.15	57195.67
422.36	58147.98
422.57	58766.46
422.78	58823.81
422.98	59483.25
423.19	60404.84
423.40	59516.02
423.61	60726.37
423.81	61969.49
424.02	61058.14
424.23	61989.97
424.44	62106.70
424.64	61457.49
424.85	62090.32
425.06	62141.52
425.27	61725.78
425.47	63419.45
425.68	62086.22
425.89	62850.11
426.10	64042.03
426.30	63327.29
426.51	62782.53
426.72	63906.86
426.92	64128.05
427.13	64017.46
427.34	63792.18
427.55	64410.67
427.75	64240.68
427.96	64152.62
428.17	65016.86
428.38	64427.05
428.58	64173.10
428.79	64717.86
429.00	64345.13
429.20	64681.00
429.41	64306.22
429.62	63929.39
429.82	64046.13
430.03	64494.63
430.24	64037.93
430.45	64732.20
430.65	64689.19
430.86	65535.00
431.07	64400.43
431.27	64613.41
431.48	65535.00
431.69	64414.76
431.90	64271.40
432.10	64652.33
432.31	64820.26
432.52	64414.76
432.72	65055.78
432.93	64842.79
433.14	64336.94
433.34	64957.47
433.55	64261.16
433.76	64707.62
433.96	65223.71
434.17	64232.49
434.38	64928.80
434.58	64369.71
434.79	64185.39
435.00	64351.27
435.21	64738.34
435.41	64816.16
435.62	63665.20
435.83	64875.55
436.03	63366.20
436.24	64803.88
436.45	64220.20
436.65	64130.09
436.86	64025.65
437.07	63900.72
437.27	64326.70
437.48	64828.45
437.69	63863.86
437.89	64513.06
438.10	63886.39
438.31	64740.39
438.51	64048.17
438.72	63820.85
438.92	64003.12
439.13	62946.37
439.34	63622.20
439.54	65201.18
439.75	64218.16
439.96	62749.76
440.16	62590.02
440.37	63243.32
440.58	62989.37
440.78	62688.32
440.99	61693.01
441.20	63792.18
441.40	63052.86
441.61	62612.55
441.82	62651.46
442.02	62553.16
442.23	61805.65
442.43	62475.33
442.64	63462.46
442.85	62725.19
443.05	62303.31
443.26	63007.81
443.47	61846.61
443.67	62162.00
443.88	62678.08
444.08	62370.89
444.29	61207.64
444.50	62168.14
444.70	61207.64
444.91	61656.15
445.12	60933.21
445.32	60212.33
445.53	60945.50
445.73	61215.83
445.94	60679.27
446.15	59810.93
446.35	61144.16
446.56	60806.24
446.76	60124.27
446.97	60298.34
447.18	59438.20
447.38	59067.51
447.59	60073.07
447.79	59665.52
448.00	58946.68
448.21	59171.96
448.41	58649.73
448.62	58606.72
448.82	58442.88
449.03	58279.05
449.24	57492.63
449.44	57500.82
449.65	57791.63
449.85	58688.64
450.06	57660.56
450.27	56689.82
450.47	56661.15
450.68	56892.57
450.88	56382.63
451.09	56419.49
451.29	56022.19
451.50	55506.10
451.71	55448.75
451.91	55827.63
452.12	55577.78
452.32	54949.05
452.53	54766.78
452.73	54973.63
452.94	54467.78
453.15	54316.23
453.35	53826.76
453.56	53357.78
453.76	53032.15
453.97	52987.10
454.17	53929.16
454.38	53134.55
454.59	52878.55
454.79	52135.14
455.00	52968.66
455.20	52503.77
455.41	51766.51
455.61	51592.43
455.82	52233.44
456.02	51586.28
456.23	50656.51
456.44	50959.61
456.64	50285.82
456.85	50187.52
457.05	50296.06
457.26	50648.32
457.46	50633.98
457.67	49548.56
457.87	50027.78
458.08	49640.71
458.28	49356.05
458.49	49028.37
458.69	49190.16
458.90	48278.82
459.11	48432.41
459.31	48495.90
459.52	48497.95
459.72	47392.04
459.93	48282.91
460.13	48037.16
460.34	47971.62
460.54	47840.55
460.75	46730.55
460.95	46929.20
461.16	46517.56
461.36	46531.90
461.57	46417.21
461.77	46271.81
461.98	45989.19
462.18	46480.70
462.39	46200.13
462.59	46210.37
462.80	45874.50
463.00	45339.98
463.21	45886.79
463.41	44977.49
463.62	45210.96
463.82	45210.96
464.03	45469.00
464.23	44676.44
464.44	44596.57
464.64	44924.24
464.85	44172.64
465.05	44664.15
465.26	45622.60
465.46	43752.80
465.67	44148.06
465.87	43797.86
466.08	43369.83
466.28	44516.70
466.49	43971.94
466.69	43203.95
466.90	43324.78
467.10	43351.40
467.31	42620.28
467.51	43505.00
467.72	43036.02
467.92	43132.27
468.13	43292.01
468.33	42919.28
468.54	42861.94
468.74	42644.85
468.95	42685.81
469.15	42481.02
469.35	42866.03
469.56	41719.17
469.76	42220.92
469.97	42116.48
470.17	42661.24
470.38	42112.38
470.58	42304.89
470.79	42261.88
470.99	42888.56
471.20	42575.22
471.40	42653.05
471.61	42380.67
471.81	41579.91
472.01	41835.91
472.22	42323.32
472.42	41524.61
472.63	42333.56
472.83	42014.08
473.04	41901.44
473.24	42220.92
473.45	42587.51
473.65	41590.15
473.85	42034.56
474.06	41770.37
474.26	42288.51
474.47	42124.67
474.67	41561.48
474.88	42456.44
475.08	41893.25
475.28	42425.72
475.49	42122.62
475.69	41592.20
475.90	41680.26
476.10	41651.59
476.31	42372.47
476.51	41862.53
476.71	41768.32
476.92	41954.69
477.12	42026.37
477.33	41680.26
477.53	41696.64
477.73	41934.21
477.94	41420.17
478.14	42003.84
478.35	41520.52
478.55	42091.90
478.76	41522.57
478.96	41399.69
479.16	42067.33
479.37	41807.23
479.57	41631.11
479.78	41694.60
479.98	41235.85
480.18	42208.64
480.39	41485.70
480.59	41735.56
480.80	41086.35
481.00	41725.32
481.20	40895.89
481.41	41401.74
481.61	41522.57
481.81	41516.42
482.02	40895.89
482.22	41213.32
482.43	41176.46
482.63	41166.22
482.83	40660.37
483.04	41213.32
483.24	40723.86
483.45	40768.91
483.65	41092.49
483.85	40947.09
484.06	40314.26
484.26	40541.59
484.46	41264.52
484.67	40408.47
484.87	40201.63
485.07	40631.70
485.28	40629.65
485.48	39955.87
485.69	40072.60
485.89	39640.48
486.09	39861.66
486.30	39912.86
486.50	39560.61
486.70	39880.10
486.91	39751.07
487.11	39505.32
487.31	39474.60
487.52	39515.56
487.72	39525.80
487.92	38978.99
488.13	39368.10
488.33	38997.42
488.54	38960.56
488.74	38634.93
488.94	39175.59
489.15	38319.54
489.35	39198.12
489.55	38714.80
489.76	38567.35
489.96	38675.89
490.16	37813.70
490.37	37995.96
490.57	38163.90
490.77	38442.42
490.98	37930.43
491.18	38002.11
491.38	37903.81
491.59	38026.68
491.79	37656.00
491.99	37664.19
492.19	37260.74
492.40	37402.05
492.60	37344.71
492.80	37346.76
493.01	36810.19
493.21	37072.33
493.41	36910.54
493.62	36724.18
493.82	36605.39
494.02	36658.64
494.23	36410.84
494.43	36619.73
494.63	36214.23
494.84	36398.55
495.04	36046.30
495.24	36400.60
495.44	36087.26
495.65	36279.77
495.85	35839.45
496.05	36341.21
496.26	35892.70
496.46	35972.57
496.66	35472.87
496.86	35194.34
497.07	35841.50
497.27	35282.41
497.47	35231.21
497.68	35169.77
497.88	35370.47
498.08	34553.33
498.28	34999.79
498.49	34887.15
498.69	34731.50
498.89	34215.41
499.10	34803.18
499.30	34272.76
499.50	34027.00
499.70	34487.79
499.91	33877.50
500.11	33738.24
500.31	33990.14
500.51	34084.34
500.72	33842.68
500.92	33799.68
501.12	33398.27
501.33	33377.79
501.53	32861.71
501.73	33046.02
501.93	33338.88
502.14	32998.92
502.34	33299.97
502.54	32607.76
502.74	32740.88
502.95	32804.36
503.15	32372.24
503.35	32392.72
503.55	32826.89
503.76	32765.45
503.96	32112.15
504.16	32380.43
504.36	32228.88
504.57	31733.28
504.77	31770.14
504.97	32280.08
505.17	31354.40
505.37	31258.15
505.58	31151.65
505.78	31147.56
505.98	31376.93
506.18	31168.04
506.39	30948.90
506.59	31335.97
506.79	31028.77
506.99	30709.29
507.20	30801.45
507.40	30750.25
507.60	30518.83
507.80	30346.80
508.00	30379.57
508.21	29978.17
508.41	30178.87
508.61	29982.26
508.81	30047.80
509.01	29861.43
509.22	30133.81
509.42	29677.12
509.62	29601.34
509.82	29640.25
510.02	29949.50
510.23	29046.34
510.43	29056.58
510.63	29304.38
510.83	29158.98
511.03	29021.77
511.24	28954.18
511.44	29249.09
511.64	29224.51
511.84	28378.70
512.04	28595.79
512.25	28675.66
512.45	28413.52
512.65	28532.30
512.85	28026.45
513.05	28161.62
513.26	28091.99
513.46	28067.41
513.66	27389.53
513.86	27584.09
514.06	27680.35
514.26	27678.30
514.47	26912.36
514.67	27278.94
514.87	26996.32
515.07	26887.78
515.27	26703.46
515.47	27113.06
515.68	26257.01
515.88	26478.19
516.08	26426.99
516.28	26396.27
516.48	26269.30
516.68	26089.07
516.89	25880.18
517.09	25724.54
517.29	25974.39
517.49	25579.13
517.69	25986.68
517.89	25871.99
518.09	25052.80
518.30	24907.40
518.50	25241.21
518.70	24915.59
518.90	24929.92
519.10	25306.75
519.30	24907.40
519.50	24665.74
519.71	24692.36
519.91	24055.44
520.11	24106.64
520.31	24075.92
520.51	24557.19
520.71	23758.49
520.91	23547.54
521.12	23619.22
521.32	23959.19
521.52	23486.11
521.72	23166.62
521.92	23107.23
522.12	23127.71
522.32	22898.34
522.52	22693.54
522.73	22851.24
522.93	22623.91
523.13	22697.64
523.33	22441.64
523.53	21989.04
523.73	22148.78
523.93	21831.35
524.13	21968.56
524.33	22480.55
524.54	22322.86
524.74	21464.76
524.94	21094.08
525.14	21388.99
525.34	21544.63
525.54	21198.52
525.74	20760.26
525.94	20938.43
526.14	20715.20
526.34	20510.41
526.55	20281.03
526.75	20483.78
526.95	20031.18
527.15	20127.44
527.35	19726.04
527.55	20111.05
527.75	19730.13
527.95	19703.51
528.15	19521.24
528.35	19029.73
528.55	19246.81
528.75	18851.55
528.96	18912.99
529.16	18765.54
529.36	18931.42
529.56	18523.88
529.76	18411.24
529.96	18364.14
530.16	18325.22
530.36	18364.14
530.56	18284.26
530.76	18024.17
530.96	17448.69
531.16	17919.73
531.36	17626.87
531.56	18114.28
531.76	17579.76
531.96	17528.56
532.17	17078.01
532.37	16699.14
532.57	16842.50
532.77	16918.27
532.97	16496.39
533.17	16736.00
533.37	16637.70
533.57	16772.86
533.77	16447.24
533.97	16518.92
534.17	16453.38
534.37	16109.32
534.57	16035.60
534.77	16148.23
534.97	15640.34
535.17	15783.70
535.37	15654.67
535.57	15580.95
535.77	15626.00
535.97	15130.39
536.17	15023.90
536.37	15077.15
536.57	15327.00
536.77	14995.23
536.97	14518.05
537.17	14966.56
537.37	14341.93
537.57	14292.77
537.77	14448.42
537.97	14231.33
538.18	14120.74
538.38	14059.31
538.58	14616.35
538.78	13815.60
538.98	14161.70
539.18	13883.18
539.38	13637.42
539.58	13408.05
539.78	13969.19
539.98	13375.28
540.18	13614.90
540.38	13363.00
540.58	13690.67
540.78	12910.40
540.98	13047.61
541.18	12926.78
541.38	12863.29
541.58	13082.42
541.77	12621.63
541.97	12937.02
542.17	13084.47
542.37	12449.60
542.57	12203.85
542.77	12298.05
542.97	12846.91
543.17	12240.71
543.37	12347.20
543.57	11988.81
543.77	12480.32
543.97	12003.14
544.17	11611.98
544.37	11624.27
544.57	11896.65
544.77	11923.27
544.97	11663.18
545.17	11726.67
545.37	11587.41
545.57	11485.01
545.77	11788.11
545.97	11698.00
546.17	11657.04
546.37	11243.35
546.57	10784.60
546.77	11247.44
546.97	10864.47
547.17	10508.13
547.37	10921.82
547.57	11013.98
547.76	10913.63
547.96	10807.13
548.16	10633.05
548.36	10477.41
548.56	10332.00
548.76	10338.15
548.96	10190.69
549.16	10141.54
549.36	10305.38
549.56	9940.84
549.76	10643.29
549.96	10039.14
550.16	10110.82
550.36	9973.61
550.56	9877.35
550.75	9729.90
550.95	9803.63
551.15	9596.78
551.35	9441.14
551.55	9447.28
551.75	9727.85
551.95	9461.62
552.15	9039.73
552.35	9543.53
552.55	9389.94
552.75	9156.47
552.95	8939.38
553.14	9088.89
553.34	9348.98
553.54	8931.19
553.74	8865.66
553.94	8669.05
554.14	8808.31
554.34	8914.81
554.54	8927.10
554.74	9025.40
554.94	8556.41
555.13	8535.93
555.33	8269.70
555.53	8368.00
555.73	8519.55
555.93	8152.96
556.13	8671.10
556.33	8290.18
556.53	8546.17
556.73	7942.02
556.92	8118.15
557.12	8281.99
557.32	8023.94
557.52	7655.31
557.72	7876.49
557.92	8062.85
558.12	8036.23
558.32	7847.82
558.51	7952.26
558.71	7833.48
558.91	7966.60
559.11	7577.48
559.31	7589.77
559.51	7446.41
559.71	7491.47
559.91	7331.73
560.10	7237.52
560.30	7745.42
560.50	7264.15
560.70	7090.07
560.90	7303.06
561.10	7088.02
561.29	7382.93
561.49	6823.83
561.69	6936.47
561.89	7102.36
562.09	7165.84
562.29	7088.02
562.49	6551.45
562.68	6832.02
562.88	7057.30
563.08	6872.98
563.28	6504.35
563.48	6649.75
563.68	6938.52
563.87	6588.32
564.07	6381.47
564.27	6567.84
564.47	6580.12
564.67	6219.68
564.87	6094.76
565.06	6258.59
565.26	6565.79
565.46	6229.92
565.66	6016.93
565.86	6569.88
566.05	6041.51
566.25	5941.16
566.45	6057.89
566.65	6178.72
566.85	5842.85
567.05	5707.69
567.24	5851.05
567.44	5709.74
567.64	6186.91
567.84	5625.77
568.04	5461.93
568.23	5980.07
568.43	6287.26
568.63	5324.72
568.83	5638.06
569.03	5750.70
569.22	5722.02
569.42	5803.94
569.62	5476.27
569.82	5762.98
570.02	5668.78
570.21	5414.83
570.41	5257.14
570.61	5308.34
570.81	5679.02
571.00	5300.14
571.20	5144.50
571.40	5646.25
571.60	5652.39
571.80	5314.48
571.99	5140.40
572.19	5390.25
572.39	5433.26
572.59	4878.26
572.78	4802.49
572.98	5218.22
573.18	5136.31
573.38	4882.36
573.57	5250.99
573.77	5140.40
573.97	5025.72
574.17	4726.71
574.36	4929.46
574.56	4872.12
574.76	4847.54
574.96	4827.06
575.15	5083.06
575.35	4784.06
575.55	4974.52
575.75	4839.35
575.94	4915.12
576.14	4847.54
576.34	4947.89
576.54	4585.40
576.73	4544.44
576.93	4739.00
577.13	4523.96
577.33	4872.12
577.52	4558.78
577.72	4489.15
577.92	4499.39
578.12	4380.61
578.31	4790.20
578.51	5115.83
578.71	4763.58
578.90	4202.43
579.10	4802.49
579.30	4743.10
579.50	4462.52
579.69	4188.10
579.89	4292.54
580.09	4681.66
580.29	4485.05
580.48	4300.73
580.68	4220.86
580.88	4329.41
581.07	4079.55
581.27	4310.97
581.47	4292.54
581.66	4261.82
581.86	4712.38
582.06	4120.51
582.26	4143.04
582.45	3993.54
582.65	4685.75
582.85	4181.95
583.04	3809.22
583.24	4331.45
583.44	4003.78
583.63	3868.61
583.83	4042.69
584.03	4022.21
584.22	4292.54
584.42	3905.48
584.62	3792.84
584.82	3952.58
585.01	4327.36
585.21	3948.48
585.41	3839.94
585.60	3968.96
585.80	3848.13
586.00	3672.01
586.19	3479.50
586.39	3702.73
586.59	3938.24
586.78	3774.41
586.98	3786.69
587.18	3938.24
587.37	4065.22
587.57	3674.06
587.77	3893.19
587.96	3772.36
588.16	3835.85
588.36	3592.14
588.55	3549.13
588.75	4259.78
588.94	3749.83
589.14	3438.54
589.34	3674.06
589.53	3911.62
589.73	3510.22
589.93	3450.83
590.12	3332.05
590.32	3807.17
590.52	3805.13
590.71	3489.74
590.91	3286.99
591.11	3545.03
591.30	3719.11
591.50	3348.43
591.69	3125.20
591.89	3780.55
592.09	3764.17
592.28	3381.20
592.48	3377.10
592.68	3581.90
592.87	3526.60
593.07	3319.76
593.26	3416.01
593.46	3360.72
593.66	3807.17
593.85	3295.18
594.05	3409.87
594.24	3444.68
594.44	3362.76
594.64	3368.91
594.83	2906.07
595.03	3946.44
595.23	3338.19
595.42	3309.52
595.62	3411.92
595.81	3626.95
596.01	3174.35
596.20	3237.84
596.40	3157.97
596.60	3286.99
596.79	3837.89
596.99	3092.43
597.18	2973.65
597.38	3342.28
597.58	3188.69
597.77	2899.92
597.97	2768.85
598.16	3346.38
598.36	3569.61
598.56	2846.68
598.75	3545.03
598.95	3424.20
599.14	3442.64
599.34	3157.97
599.53	3123.15
599.73	3211.22
599.93	3499.98
600.12	3114.96
600.32	3272.65
600.51	3266.51
600.71	3135.44
600.90	3184.59
601.10	3082.19
601.29	3577.80
601.49	3385.29
601.69	2967.51
601.88	3133.39
602.08	3375.05
602.27	3305.42
602.47	3004.37
602.66	3016.66
602.86	3399.63
603.05	3391.44
603.25	2932.69
603.45	2998.23
603.64	3393.48
603.84	3096.53
604.03	2744.28
604.23	3035.09
604.42	3207.12
604.62	3176.40
604.81	2846.68
605.01	3248.08
605.20	3295.18
605.40	3108.82
605.59	2707.41
605.79	2867.16
605.98	2990.03
606.18	3307.47
606.37	3291.09
606.57	3012.56
606.77	3094.48
606.96	3004.37
607.16	2564.06
607.35	2721.75
607.55	3110.86
607.74	3184.59
607.94	2904.02
608.13	2789.33
608.33	2963.41
608.52	3078.10
608.72	2797.53
608.91	2883.54
609.11	2869.20
609.30	3266.51
609.50	2914.26
609.69	2643.93
609.89	3207.12
610.08	3258.32
610.28	2721.75
610.47	2693.08
610.67	3069.91
610.86	3110.86
611.06	3129.30
611.25	2820.05
611.44	3143.63
611.64	3117.01
611.83	3078.10
612.03	2803.67
612.22	2977.75
612.42	3041.23
612.61	2562.01
612.81	2682.84
613.00	2992.08
613.20	2932.69
613.39	2641.88
613.59	2877.40
613.78	2783.19
613.98	3350.48
614.17	2940.88
614.37	2893.78
614.56	2807.77
614.75	2953.17
614.95	2762.71
615.14	2684.89
615.34	2666.46
615.53	3278.80
615.73	3114.96
615.92	2709.46
616.12	2779.09
616.31	2777.05
616.50	2940.88
616.70	2777.05
616.89	2842.58
617.09	3047.38
617.28	2801.62
617.48	2856.92
617.67	2965.46
617.87	3119.06
618.06	2717.65
618.25	2445.27
618.45	2815.96
618.64	3215.31
618.84	2762.71
619.03	2799.57
619.23	2725.85
619.42	2535.39
619.61	2748.37
619.81	2756.57
620.00	2873.30
620.20	2926.55
620.39	2920.40
620.58	2510.81
620.78	2652.12
620.97	2865.11
621.17	2459.61
621.36	2455.51
621.55	3020.75
621.75	2871.25
621.94	2785.24
622.14	2426.84
622.33	2531.29
622.52	2820.05
622.72	2297.82
622.91	2658.26
623.11	2846.68
623.30	2754.52
623.49	2768.85
623.69	2570.20
623.88	2801.62
624.08	2949.08
624.27	2631.64
624.46	2666.46
624.66	2613.21
624.85	2944.98
625.05	2562.01
625.24	2600.92
625.43	2703.32
625.63	2648.02
625.82	2510.81
626.01	2373.60
626.21	2801.62
626.40	2914.26
626.59	2514.91
626.79	2709.46
626.98	2777.05
627.18	2605.02
627.37	2719.70
627.56	2480.09
627.76	2631.64
627.95	2809.81
628.14	2306.01
628.34	2625.50
628.53	2697.17
628.72	2742.23
628.92	2455.51
629.11	2756.57
629.30	2637.78
629.50	2467.80
629.69	2580.44
629.88	2731.99
630.08	2807.77
630.27	2596.82
630.46	2465.75
630.66	2596.82
630.85	2607.06
631.04	2754.52
631.24	2783.19
631.43	2484.19
631.62	2691.03
631.82	2856.92
632.01	2420.70
632.20	2332.64
632.40	3299.28
632.59	2777.05
632.78	2482.14
632.98	2379.74
633.17	2738.13
633.36	2858.96
633.56	2381.79
633.75	2359.26
633.94	2486.23
634.14	2904.02
634.33	2396.12
634.52	2613.21
634.71	2670.55
634.91	2830.29
635.10	2525.15
635.29	2404.32
635.49	2637.78
635.68	2592.73
635.87	2410.46
636.07	2402.27
636.26	2705.37
636.45	3045.33
636.64	2619.35
636.84	2506.71
637.03	2781.14
637.22	2631.64
637.42	2496.47
637.61	2381.79
637.80	2738.13
637.99	2666.46
638.19	2519.00
638.38	2648.02
638.57	2537.43
638.76	2656.22
638.96	2414.56
639.15	2777.05
639.34	2598.87
639.54	2467.80
639.73	2365.40
639.92	2443.23
640.11	2373.60
640.31	2648.02
640.50	2514.91
640.69	2627.54
640.88	2660.31
641.08	2719.70
641.27	2353.12
641.46	2457.56
641.65	2324.44
641.85	2521.05
642.04	2723.80
642.23	2396.12
642.42	2543.58
642.62	2580.44
642.81	2375.64
643.00	2645.98
643.19	2570.20
643.38	2459.61
643.58	2174.94
643.77	2367.45
643.96	2584.54
644.15	2721.75
644.35	2318.30
644.54	2203.61
644.73	2625.50
644.92	2551.77
645.12	2641.88
645.31	2226.14
645.50	2508.76
645.69	2480.09
645.88	2248.67
646.08	2244.57
646.27	2277.34
646.46	2398.17
646.65	2516.95
646.84	2289.63
647.04	2584.54
647.23	2492.38
647.42	2568.15
647.61	2572.25
647.80	2658.26
648.00	2713.56
648.19	2373.60
648.38	2312.16
648.57	2609.11
648.76	2582.49
648.96	2435.03
649.15	2486.23
649.34	2359.26
649.53	2510.81
649.72	2281.44
649.92	2525.15
650.11	2432.99
650.30	2467.80
650.49	2174.94
650.68	2265.05
650.87	2387.93
651.07	2260.96
651.26	2314.20
651.45	2359.26
651.64	2340.83
651.83	2566.10
652.02	2285.53
652.22	2256.86
652.41	2426.84
652.60	2555.86
652.79	2160.61
652.98	2377.69
653.17	2609.11
653.37	2504.67
653.56	2408.41
653.75	2416.60
653.94	2523.10
654.13	2551.77
654.32	2443.23
654.51	2244.57
654.71	2430.94
654.90	2516.95
655.09	2168.80
655.28	2420.70
655.47	2684.89
655.66	2592.73
655.85	2338.78
656.05	2469.85
656.24	2797.53
656.43	2519.00
656.62	2330.59
656.81	2535.39
657.00	2547.67
657.19	2361.31
657.38	2252.77
657.58	2471.90
657.77	2455.51
657.96	2377.69
658.15	2465.75
658.34	2338.78
658.53	2453.47
658.72	2475.99
658.91	2306.01
659.10	2635.74
659.30	2402.27
659.49	2555.86
659.68	2455.51
659.87	2473.95
660.06	2551.77
660.25	2492.38
660.44	2482.14
660.63	2158.56
660.82	2553.82
661.01	2576.34
661.21	2215.90
661.40	2379.74
661.59	2414.56
661.78	2377.69
661.97	2260.96
662.16	2371.55
662.35	2424.80
662.54	2607.06
662.73	2461.66
662.92	2422.75
663.11	2623.45
663.30	2510.81
663.50	2312.16
663.69	2217.95
663.88	2645.98
664.07	2457.56
664.26	2256.86
664.45	2467.80
664.64	2389.98
664.83	2236.38
665.02	2220.00
665.21	2457.56
665.40	2273.25
665.59	2504.67
665.78	2543.58
665.97	2396.12
666.16	2514.91
666.35	2418.65
666.54	2123.74
666.73	2473.95
666.93	2217.95
667.12	2461.66
667.31	2541.53
667.50	2312.16
667.69	2303.96
667.88	2385.88
668.07	2392.03
668.26	2226.14
668.45	2699.22
668.64	2525.15
668.83	2207.71
669.02	2285.53
669.21	2240.48
669.40	2488.28
669.59	2402.27
669.78	2334.68
669.97	2365.40
670.16	2422.75
670.35	2260.96
670.54	2252.77
670.73	2502.62
670.92	2301.92
671.11	2346.97
671.30	2308.06
671.49	2676.70
671.68	2486.23
671.87	2355.16
672.06	2361.31
672.25	2508.76
672.44	2637.78
672.63	2062.30
672.82	2371.55
673.01	2455.51
673.20	2469.85
673.39	2369.50
673.58	2215.90
673.77	2117.60
673.96	2308.06
674.15	2353.12
674.34	2353.12
674.53	2607.06
674.72	2486.23
674.91	2441.18
675.10	2306.01
675.29	2424.80
675.48	2220.00
675.67	2129.89
675.86	2232.29
676.05	2344.92
676.24	2404.32
676.43	2379.74
676.62	2541.53
676.81	2529.24
677.00	2566.10
677.19	2189.28
677.38	2158.56
677.57	2541.53
677.75	2570.20
677.94	2310.11
678.13	2113.50
678.32	2557.91
678.51	2727.89
678.70	2105.31
678.89	2367.45
679.08	2133.98
679.27	2471.90
679.46	2170.85
679.65	2449.37
679.84	2199.52
680.03	2389.98
680.22	2373.60
680.41	2410.46
680.60	2658.26
680.79	2654.17
680.97	2166.75
681.16	2222.05
681.35	2480.09
681.54	2383.84
681.73	2195.42
681.92	2306.01
682.11	2439.13
682.30	2537.43
682.49	2226.14
682.68	2084.83
682.87	2314.20
683.06	2439.13
683.25	2285.53
683.43	2230.24
683.62	2510.81
683.81	2510.81
684.00	2273.25
684.19	2310.11
684.38	2426.84
684.57	2523.10
684.76	2213.85
684.95	2205.66
685.14	2549.72
685.32	2326.49
685.51	2113.50
685.70	2441.18
685.89	2260.96
686.08	2322.40
686.27	2115.55
686.46	2193.37
686.65	2379.74
686.83	2422.75
687.02	2297.82
687.21	2234.33
687.40	2559.96
687.59	2406.36
687.78	2420.70
687.97	2072.54
688.16	2420.70
688.34	2523.10
688.53	2338.78
688.72	2418.65
688.91	2525.15
689.10	2578.39
689.29	2271.20
689.48	2150.37
689.66	2549.72
689.85	2756.57
690.04	2338.78
690.23	2451.42
690.42	2334.68
690.61	2471.90
690.80	2324.44
690.98	2250.72
691.17	2580.44
691.36	2834.39
691.55	2265.05
691.74	2189.28
691.93	2252.77
692.11	2322.40
692.30	2281.44
692.49	2676.70
692.68	2582.49
692.87	2308.06
693.06	2093.02
693.24	2367.45
693.43	2332.64
693.62	2328.54
693.81	2097.12
694.00	2256.86
694.19	2326.49
694.37	2406.36
694.56	2093.02
694.75	2375.64
694.94	2310.11
695.13	2267.10
695.31	2109.41
695.50	2148.32
695.69	2715.61
695.88	2576.34
696.07	2441.18
696.25	2439.13
696.44	2418.65
696.63	2752.47
696.82	2207.71
697.01	2201.57
697.19	2336.73
697.38	2566.10
697.57	2224.09
697.76	2328.54
697.95	2506.71
698.13	2322.40
698.32	2179.04
698.51	2240.48
698.70	2639.83
698.88	2334.68
699.07	2154.46
699.26	2152.42
699.45	2375.64
699.64	2453.47
699.82	2205.66
700.01	2379.74
700.20	2213.85
700.39	2525.15
700.57	2267.10
700.76	2420.70
700.95	2277.34
701.14	2762.71
701.32	2140.13
701.51	2285.53
701.70	2336.73
701.89	2256.86
702.07	2334.68
702.26	2359.26
702.45	2461.66
702.64	2486.23
702.82	2232.29
703.01	2310.11
703.20	2367.45
703.39	2461.66
703.57	2457.56
703.76	2617.30
703.95	2220.00
704.14	2312.16
704.32	2185.18
704.51	2328.54
704.70	2209.76
704.89	2310.11
705.07	2322.40
705.26	2363.36
705.45	2162.66
705.63	2258.91
705.82	2246.62
706.01	2314.20
706.20	2215.90
706.38	2332.64
706.57	2109.41
706.76	2121.70
706.94	2217.95
707.13	2416.60
707.32	2451.42
707.51	2082.78
707.69	2293.72
707.88	2711.51
708.07	2250.72
708.25	2041.82
708.44	2277.34
708.63	2162.66
708.81	2142.18
709.00	2349.02
709.19	2426.84
709.37	2217.95
709.56	2179.04
709.75	2281.44
709.94	2373.60
710.12	2301.92
710.31	2297.82
710.50	2414.56
710.68	2443.23
710.87	2475.99
711.06	2195.42
711.24	2494.43
711.43	2336.73
711.62	2641.88
711.80	2187.23
711.99	2541.53
712.18	2277.34
712.36	2416.60
712.55	2211.81
712.74	2199.52
712.92	2310.11
713.11	2541.53
713.30	2195.42
713.48	2224.09
713.67	2297.82
713.85	2533.34
714.04	2267.10
714.23	2766.81
714.41	2133.98
714.60	2437.08
714.79	2306.01
714.97	2551.77
715.16	2351.07
715.35	2508.76
715.53	2109.41
715.72	2285.53
715.91	2336.73
716.09	2439.13
716.28	2285.53
716.46	2316.25
716.65	2623.45
716.84	2633.69
717.02	2129.89
717.21	2281.44
717.40	2199.52
717.58	2215.90
717.77	2383.84
717.95	2449.37
718.14	2555.86
718.33	2551.77
718.51	2252.77
718.70	2115.55
718.88	2445.27
719.07	2320.35
719.26	2129.89
719.44	2349.02
719.63	2166.75
719.81	2297.82
720.00	2211.81
720.19	2250.72
720.37	2193.37
720.56	2467.80
720.74	2269.15
720.93	2306.01
721.12	2346.97
721.30	2404.32
721.49	2140.13
721.67	2240.48
721.86	2398.17
722.04	2482.14
722.23	2238.43
722.42	2412.51
722.60	2258.91
722.79	2451.42
722.97	2340.83
723.16	2193.37
723.34	2211.81
723.53	2406.36
723.72	2574.30
723.90	2297.82
724.09	2287.58
724.27	2557.91
724.46	2369.50
724.64	2181.09
724.83	2349.02
725.01	2428.89
725.20	2215.90
725.39	2256.86
725.57	2711.51
725.76	2435.03
725.94	2142.18
726.13	2017.25
726.31	2246.62
726.50	2381.79
726.68	2375.64
726.87	2342.88
727.05	2400.22
727.24	2349.02
727.42	2457.56
727.61	2408.41
727.80	2158.56
727.98	2615.26
728.17	2066.40
728.35	2263.01
728.54	2482.14
728.72	2373.60
728.91	2271.20
729.09	2050.02
729.28	2510.81
729.46	2486.23
729.65	2303.96
729.83	2258.91
730.02	2633.69
730.20	2490.33
730.39	2662.36
730.57	2191.33
730.76	2244.57
730.94	2607.06
731.13	2256.86
731.31	2125.79
731.50	2238.43
731.68	2318.30
731.87	2201.57
732.05	2351.07
732.24	2447.32
732.42	2359.26
732.61	2205.66
732.79	2314.20
732.98	2527.19
733.16	2525.15
733.35	2160.61
733.53	2148.32
733.71	2265.05
733.90	2338.78
734.08	2217.95
734.27	2342.88
734.45	2326.49
734.64	2330.59
734.82	2281.44
735.01	2287.58
735.19	2232.29
735.38	2435.03
735.56	2516.95
735.75	2527.19
735.93	2301.92
736.11	2488.28
736.30	2312.16
736.48	2174.94
736.67	2463.71
736.85	2428.89
737.04	2172.89
737.22	2435.03
737.41	2451.42
737.59	2170.85
737.77	2371.55
737.96	2170.85
738.14	2531.29
738.33	2586.58
738.51	2246.62
738.70	2389.98
738.88	2176.99
739.06	2531.29
739.25	2334.68
739.43	2285.53
739.62	2379.74
739.80	2437.08
739.99	2375.64
740.17	2199.52
740.35	2508.76
740.54	2275.29
740.72	2220.00
740.91	2369.50
741.09	2367.45
741.27	2498.52
741.46	2359.26
741.64	2105.31
741.83	2525.15
742.01	2625.50
742.19	2256.86
742.38	2310.11
742.56	2461.66
742.75	2582.49
742.93	2361.31
743.11	2594.78
743.30	2404.32
743.48	2301.92
743.67	2299.87
743.85	2281.44
744.03	2195.42
744.22	2656.22
744.40	2297.82
744.58	2342.88
744.77	2371.55
744.95	2488.28
745.14	2052.06
745.32	2176.99
745.50	2314.20
745.69	2340.83
745.87	2072.54
746.05	2467.80
746.24	2322.40
746.42	2187.23
746.61	2236.38
746.79	2412.51
746.97	2519.00
747.16	2443.23
747.34	2615.26
747.52	2500.57
747.71	2547.67
747.89	2402.27
748.07	2154.46
748.26	2121.70
748.44	2703.32
748.62	2396.12
748.81	2349.02
748.99	2316.25
749.17	2312.16
749.36	2467.80
749.54	2217.95
749.72	2377.69
749.91	2166.75
750.09	2394.08
750.27	2152.42
750.46	2127.84
750.64	2508.76
750.82	2240.48
751.01	2191.33
751.19	2412.51
751.37	2430.94
751.56	2512.86
751.74	2060.26
751.92	2230.24
752.10	2414.56
752.29	2197.47
752.47	2394.08
752.65	2252.77
752.84	2281.44
753.02	2183.13
753.20	2408.41
753.39	2330.59
753.57	2426.84
753.75	2549.72
753.93	2353.12
754.12	2166.75
754.30	2260.96
754.48	2519.00
754.67	2179.04
754.85	2207.71
755.03	2422.75
755.21	2760.66
755.40	2426.84
755.58	2121.70
755.76	2443.23
755.95	2389.98
756.13	2150.37
756.31	2263.01
756.49	2418.65
756.68	2414.56
756.86	2179.04
757.04	2445.27
757.22	2617.30
757.41	2527.19
757.59	2617.30
757.77	2453.47
757.95	2703.32
758.14	2443.23
758.32	2334.68
758.50	2267.10
758.68	2576.34
758.87	2693.08
759.05	2269.15
759.23	2529.24
759.41	2289.63
759.60	2543.58
759.78	2537.43
759.96	2191.33
760.14	2398.17
760.33	2297.82
760.51	2363.36
760.69	2265.05
760.87	2322.40
761.05	2459.61
761.24	2164.70
761.42	2500.57
761.60	2478.04
761.78	2598.87
761.97	2240.48
762.15	2582.49
762.33	2555.86
762.51	2445.27
762.69	2435.03
762.88	2449.37
763.06	2781.14
763.24	2430.94
763.42	2672.60
763.60	2371.55
763.79	2248.67
763.97	2492.38
764.15	2156.51
764.33	2420.70
764.51	2502.62
764.70	2543.58
764.88	2502.62
765.06	2418.65
765.24	2346.97
765.42	2777.05
765.61	2351.07
765.79	2349.02
765.97	2428.89
766.15	2502.62
766.33	2269.15
766.51	2232.29
766.70	2449.37
766.88	2662.36
767.06	2377.69
767.24	2310.11
767.42	2310.11
767.60	2428.89
767.79	2357.21
767.97	2377.69
768.15	2379.74
768.33	2570.20
768.51	2396.12
768.69	2744.28
768.88	2389.98
769.06	2557.91
769.24	2312.16
769.42	2684.89
769.60	2334.68
769.78	2402.27
769.96	2133.98
770.15	2844.63
770.33	2533.34
770.51	2549.72
770.69	2478.04
770.87	2420.70
771.05	2498.52
771.23	2523.10
771.41	2301.92
771.60	2295.77
771.78	2416.60
771.96	2432.99
772.14	2215.90
772.32	2619.35
772.50	2330.59
772.68	2457.56
772.86	2353.12
773.05	2369.50
773.23	2525.15
773.41	2414.56
773.59	2381.79
773.77	2322.40
773.95	2580.44
774.13	2592.73
774.31	2203.61
774.49	2512.86
774.68	2301.92
774.86	2854.87
775.04	2461.66
775.22	2346.97
775.40	2258.91
775.58	2330.59
775.76	2471.90
775.94	2463.71
776.12	2463.71
776.30	2613.21
776.48	2392.03
776.66	2551.77
776.85	2455.51
777.03	2772.95
777.21	2238.43
777.39	2521.05
777.57	2707.41
777.75	2435.03
777.93	2359.26
778.11	2637.78
778.29	2521.05
778.47	2377.69
778.65	2709.46
778.83	2754.52
779.01	2664.41
779.19	2678.74
779.37	2498.52
779.55	2703.32
779.74	2275.29
779.92	2764.76
780.10	2420.70
780.28	2543.58
780.46	2691.03
780.64	2744.28
780.82	2455.51
781.00	2635.74
781.18	2496.47
781.36	2566.10
781.54	2275.29
781.72	2727.89
781.90	2449.37
782.08	2383.84
782.26	2404.32
782.44	2430.94
782.62	2691.03
782.80	2768.85
782.98	2330.59
783.16	2422.75
783.34	2521.05
783.52	2643.93
783.70	2519.00
783.88	2170.85
784.06	2605.02
784.24	2643.93
784.42	2478.04
784.60	2279.39
784.78	2406.36
784.96	2383.84
785.14	2453.47
785.32	2437.08
785.50	2308.06
785.68	2858.96
785.86	2404.32
786.04	2283.49
786.22	2598.87
786.40	2410.46
786.58	2275.29
786.76	2224.09
786.94	2492.38
787.12	2287.58
787.30	2490.33
787.48	2342.88
787.66	2502.62
787.84	2441.18
788.02	2613.21
788.20	2207.71
788.38	2484.19
788.56	2918.36
788.74	2437.08
788.92	2328.54
789.10	2666.46
789.28	2744.28
789.46	2299.87
789.64	2824.15
789.82	2363.36
790.00	2506.71
790.17	2215.90
790.35	2455.51
790.53	2611.16
790.71	2729.94
790.89	2672.60
791.07	2402.27
791.25	2725.85
791.43	2406.36
791.61	2340.83
791.79	2383.84
791.97	2418.65
792.15	2535.39
792.33	2650.07
792.51	2263.01
792.69	2545.63
792.86	2553.82
793.04	2371.55
793.22	2498.52
793.40	2553.82
793.58	2439.13
793.76	2244.57
793.94	3059.67
794.12	2578.39
794.30	2500.57
794.48	2383.84
794.66	2625.50
794.84	2633.69
795.01	2529.24
795.19	2318.30
795.37	2594.78
795.55	2629.59
795.73	2742.23
795.91	2389.98
796.09	2392.03
796.27	2523.10
796.45	2398.17
796.62	2426.84
796.80	2478.04
796.98	2342.88
797.16	2578.39
797.34	2367.45
797.52	2455.51
797.70	2508.76
797.88	2516.95
798.06	2574.30
798.23	3121.10
798.41	2590.68
798.59	2351.07
798.77	2199.52
798.95	2447.32
799.13	2398.17
799.31	2701.27
799.48	2414.56
799.66	2355.16
799.84	2357.21
800.02	2398.17
800.20	2467.80
800.38	3252.17
800.56	2504.67
800.73	2609.11
800.91	2457.56
801.09	2908.12
801.27	2478.04
801.45	2545.63
801.63	2449.37
801.80	2607.06
801.98	2473.95
802.16	2363.36
802.34	2326.49
802.52	2519.00
802.70	2557.91
802.87	2484.19
803.05	2367.45
803.23	2549.72
803.41	2666.46
803.59	2635.74
803.77	2439.13
803.94	2527.19
804.12	2455.51
804.30	2463.71
804.48	2437.08
804.66	2183.13
804.83	2912.21
805.01	2260.96
805.19	2494.43
805.37	2256.86
805.55	2555.86
805.72	2584.54
805.90	2226.14
806.08	2465.75
806.26	2537.43
806.44	2787.29
806.61	2443.23
806.79	2285.53
806.97	2285.53
807.15	2543.58
807.32	2389.98
807.50	2410.46
807.68	2422.75
807.86	2598.87
808.04	2263.01
808.21	2543.58
808.39	2707.41
808.57	2564.06
808.75	2404.32
808.92	2252.77
809.10	2553.82
809.28	2637.78
809.46	2572.25
809.63	2416.60
809.81	2486.23
809.99	2727.89
810.17	2314.20
810.35	2420.70
810.52	2506.71
810.70	2531.29
810.88	2586.58
811.05	2631.64
811.23	2605.02
811.41	2940.88
811.59	2455.51
811.76	2285.53
811.94	2537.43
812.12	2459.61
812.30	2387.93
812.47	2514.91
812.65	2336.73
812.83	2858.96
813.01	2543.58
813.18	2400.22
813.36	2629.59
813.54	2764.76
813.71	2230.24
813.89	2373.60
814.07	2629.59
814.25	2600.92
814.42	2258.91
814.60	2342.88
814.78	2504.67
814.95	2828.24
815.13	2246.62
815.31	2437.08
815.49	2564.06
815.66	2674.65
815.84	2234.33
816.02	2346.97
816.19	2496.47
816.37	2449.37
816.55	2293.72
816.72	2639.83
816.90	2482.14
817.08	2447.32
817.25	2641.88
817.43	2246.62
817.61	2494.43
817.78	2557.91
817.96	2402.27
818.14	2306.01
818.32	2369.50
818.49	2553.82
818.67	2299.87
818.85	2699.22
819.02	2686.94
819.20	2566.10
819.38	2502.62
819.55	2369.50
819.73	2676.70
819.90	2813.91
820.08	2213.85
820.26	2435.03
820.43	2748.37
820.61	2590.68
820.79	2406.36
820.96	2181.09
821.14	2263.01
821.32	2498.52
821.49	2281.44
821.67	2236.38
821.85	2402.27
822.02	2285.53
822.20	2555.86
822.37	2232.29
822.55	2580.44
822.73	2846.68
822.90	2449.37
823.08	2377.69
823.26	2359.26
823.43	2484.19
823.61	2336.73
823.78	2336.73
823.96	2547.67
824.14	2768.85
824.31	2461.66
824.49	2379.74
824.67	2621.40
824.84	2586.58
825.02	2332.64
825.19	2207.71
825.37	2879.44
825.55	2516.95
825.72	2678.74
825.90	2697.17
826.07	2600.92
826.25	2740.18
826.43	2117.60
826.60	2551.77
826.78	2506.71
826.95	2621.40
827.13	2277.34
827.30	2549.72
827.48	2551.77
827.66	2514.91
827.83	2387.93
828.01	2441.18
828.18	2486.23
828.36	2562.01
828.53	2226.14
828.71	2238.43
828.89	2576.34
829.06	2656.22
829.24	2287.58
829.41	2260.96
829.59	2396.12
829.76	2453.47
829.94	2291.68
830.11	2277.34
830.29	2385.88
830.47	2633.69
830.64	2398.17
830.82	2469.85
830.99	2430.94
831.17	2576.34
831.34	2684.89
831.52	2451.42
831.69	2406.36
831.87	2535.39
832.04	2455.51
832.22	2295.77
832.40	2525.15
832.57	2623.45
832.75	2220.00
832.92	2230.24
833.10	2549.72
833.27	2625.50
833.45	2480.09
833.62	2232.29
833.80	2539.48
833.97	2600.92
834.15	2625.50
834.32	2367.45
834.50	2281.44
834.67	2899.92
834.85	2443.23
835.02	2461.66
835.20	2613.21
835.37	2856.92
835.55	2469.85
835.72	2500.57
835.90	2375.64
836.07	2766.81
836.25	2623.45
836.42	2383.84
836.60	2396.12
836.77	2715.61
836.95	2725.85
837.12	2609.11
837.30	2535.39
837.47	2420.70
837.65	2254.81
837.82	2322.40
838.00	2312.16
838.17	2494.43
838.34	2215.90
838.52	2488.28
838.69	2740.18
838.87	2650.07
839.04	2394.08
839.22	2199.52
839.39	2533.34
839.57	2559.96
839.74	2342.88
839.92	2306.01
840.09	2443.23
840.26	2746.33
840.44	2283.49
840.61	2414.56
840.79	2267.10
840.96	2334.68
841.14	2588.63
841.31	2355.16
841.49	2424.80
841.66	2533.34
841.83	2396.12
842.01	2594.78
842.18	2490.33
842.36	2592.73
842.53	2269.15
842.71	2639.83
842.88	2320.35
843.05	2543.58
843.23	2377.69
843.40	2373.60
843.58	2715.61
843.75	2600.92
843.92	2297.82
844.10	2344.92
844.27	2408.41
844.45	2666.46
844.62	2242.53
844.80	2488.28
844.97	2396.12
845.14	2619.35
845.32	2162.66
845.49	2222.05
845.66	2504.67
845.84	2346.97
846.01	2379.74
846.19	2435.03
846.36	2758.61
846.53	2850.77
846.71	2359.26
846.88	2349.02
847.06	2435.03
847.23	2475.99
847.40	2293.72
847.58	2459.61
847.75	2660.31
847.92	2985.94
848.10	2320.35
848.27	2449.37
848.45	2449.37
848.62	2707.41
848.79	2127.84
848.97	2377.69
849.14	2447.32
849.31	2361.31
849.49	2469.85
849.66	2228.19
849.83	2447.32
850.01	2838.48
850.18	2420.70
850.35	2459.61
850.53	2754.52
850.70	2584.54
850.87	2398.17
851.05	2353.12
851.22	2676.70
851.39	2977.75
851.57	2162.66
851.74	2279.39
851.91	2392.03
852.09	2496.47
852.26	2465.75
852.43	2187.23
852.61	2650.07
852.78	2416.60
852.95	2664.41
853.13	2244.57
853.30	2629.59
853.47	2738.13
853.65	2615.26
853.82	2209.76
853.99	2578.39
854.16	2600.92
854.34	2240.48
854.51	2152.42
854.68	2465.75
854.86	2619.35
855.03	2207.71
855.20	2242.53
855.38	2447.32
855.55	2666.46
855.72	2027.49
855.89	2187.23
856.07	2723.80
856.24	2408.41
856.41	2156.51
856.59	2457.56
856.76	2574.30
856.93	2725.85
857.10	2203.61
857.28	2213.85
857.45	2502.62
857.62	2525.15
857.79	2121.70
857.97	2066.40
858.14	2631.64
858.31	2545.63
858.48	2086.88
858.66	2344.92
858.83	2719.70
859.00	2529.24
859.17	2232.29
859.35	2281.44
859.52	2643.93
859.69	2605.02
859.86	2136.03
860.04	2111.46
860.21	2539.48
860.38	2777.05
860.55	2084.83
860.73	2322.40
860.90	2289.63
861.07	2750.42
861.24	2330.59
861.42	2203.61
861.59	2508.76
861.76	2596.82
861.93	1986.53
862.10	2215.90
862.28	2650.07
862.45	2500.57
862.62	2111.46
862.79	2340.83
862.96	2426.84
863.14	2650.07
863.31	2062.30
863.48	2539.48
863.65	2428.89
863.83	2623.45
864.00	2475.99
864.17	2056.16
864.34	2711.51
864.51	2525.15
864.68	2090.98
864.86	2506.71
865.03	2486.23
865.20	2635.74
865.37	2308.06
865.54	2402.27
865.72	2519.00
865.89	2568.15
866.06	2234.33
866.23	2510.81
866.40	2680.79
866.57	2820.05
866.75	2369.50
866.92	2115.55
867.09	2508.76
867.26	2527.19
867.43	2402.27
867.60	2111.46
867.78	2576.34
867.95	2734.04
868.12	2324.44
868.29	2019.30
868.46	2654.17
868.63	2719.70
868.81	2293.72
868.98	2176.99
869.15	2764.76
869.32	2740.18
869.49	2162.66
869.66	2269.15
869.83	2635.74
870.00	2531.29
870.18	2170.85
870.35	2260.96
870.52	2457.56
870.69	2852.82
870.86	2281.44
871.03	2224.09
871.20	2455.51
871.37	2584.54
871.55	2269.15
871.72	2176.99
871.89	2543.58
872.06	2607.06
872.23	2291.68
872.40	2183.13
872.57	2744.28
872.74	2709.46
872.91	2039.78
873.09	2224.09
873.26	2707.41
873.43	2199.52
873.60	2346.97
873.77	2293.72
873.94	2637.78
874.11	2627.54
874.28	2297.82
874.45	2140.13
874.62	2580.44
874.79	2736.09
874.97	2258.91
875.14	2271.20
875.31	2654.17
875.48	2439.13
875.65	2260.96
875.82	2478.04
875.99	2490.33
876.16	2629.59
876.33	2164.70
876.50	2547.67
876.67	3112.91
876.84	2645.98
877.01	2195.42
877.18	2443.23
877.35	2586.58
877.53	2600.92
877.70	2371.55
877.87	2279.39
878.04	2490.33
878.21	2707.41
878.38	2203.61
878.55	2254.81
878.72	2500.57
878.89	2893.78
879.06	2265.05
879.23	2396.12
879.40	2486.23
879.57	2748.37
879.74	2154.46
879.91	2414.56
880.08	2555.86
880.25	2600.92
880.42	2154.46
880.59	2125.79
880.76	2508.76
880.93	2668.50
881.10	2111.46
881.27	2271.20
881.44	2453.47
881.61	2871.25
881.78	2043.87
881.95	2437.08
882.12	2510.81
882.29	2592.73
882.46	2363.36
882.63	2328.54
882.80	2627.54
882.97	2568.15
883.14	2332.64
883.31	2138.08
883.48	2648.02
883.65	2752.47
883.82	2172.89
883.99	2320.35
884.16	3088.34
884.33	2818.00
884.50	2183.13
884.67	2174.94
884.84	2871.25
885.01	2447.32
885.18	2299.87
885.35	2025.44
885.52	2957.27
885.69	2568.15
885.86	2449.37
886.03	2183.13
886.20	3026.90
886.37	2555.86
886.54	2375.64
886.71	2066.40
886.87	2994.13
887.04	2666.46
887.21	2310.11
887.38	2142.18
887.55	2365.40
887.72	2619.35
887.89	2328.54
888.06	2025.44
888.23	2537.43
888.40	2940.88
888.57	2242.53
888.74	2254.81
888.91	2547.67
889.08	2344.92
889.25	2342.88
889.42	2082.78
889.58	2695.13
889.75	2729.94
889.92	2359.26
890.09	2496.47
890.26	3819.46
890.43	2527.19
890.60	2301.92
890.77	2138.08
890.94	2594.78
891.11	2420.70
891.28	2086.88
891.44	2303.96
891.61	2682.84
891.78	2408.41
891.95	2185.18
892.12	2375.64
892.29	2461.66
892.46	2885.59
892.63	2234.33
892.80	2101.22
892.96	2662.36
893.13	2713.56
893.30	2461.66
893.47	2338.78
893.64	2891.73
893.81	2406.36
893.98	2123.74
894.15	2240.48
894.31	2582.49
894.48	2494.43
894.65	2260.96
894.82	2637.78
894.99	2744.28
895.16	2475.99
895.33	2568.15
895.49	2377.69
895.66	2473.95
895.83	2568.15
896.00	1988.58
896.17	2164.70
896.34	2478.04
896.50	2596.82
896.67	2121.70
896.84	2150.37
897.01	2590.68
897.18	2396.12
897.35	2176.99
897.51	2279.39
897.68	2555.86
897.85	2848.72
898.02	2072.54
898.19	2193.37
898.36	2490.33
898.52	2891.73
898.69	2652.12
898.86	2559.96
899.03	2478.04
899.20	2539.48
899.36	2174.94
899.53	2150.37
899.70	2418.65
899.87	2625.50
900.04	2252.77
900.20	2557.91
900.37	2467.80
900.54	2439.13
900.71	2215.90
900.88	2459.61
901.04	2482.14
901.21	2541.53
901.38	2142.18
901.55	2185.18
901.72	2349.02
901.88	2473.95
902.05	2191.33
902.22	2230.24
902.39	2676.70
902.55	2504.67
902.72	2146.27
902.89	2181.09
903.06	2539.48
903.23	2459.61
903.39	2285.53
903.56	2148.32
903.73	2674.65
903.90	2232.29
904.06	2336.73
904.23	2220.00
904.40	2637.78
904.57	2707.41
904.73	2416.60
904.90	2353.12
905.07	2531.29
905.24	2310.11
905.40	2052.06
905.57	2170.85
905.74	2680.79
905.91	2258.91
906.07	2263.01
906.24	2336.73
906.41	2541.53
906.57	2672.60
906.74	2189.28
906.91	2277.34
907.08	2488.28
907.24	2707.41
907.41	2334.68
907.58	2142.18
907.75	2549.72
907.91	2578.39
908.08	2475.99
908.25	2424.80
908.41	2676.70
908.58	2772.95
908.75	2230.24
908.91	2318.30
909.08	2645.98
909.25	2523.10
909.42	2293.72
>>>>>End Processed Spectral Data<<<<<
